t,gx,gy,gz,ax,ay,az,gesture
0.0,-13.0,-16.0,-3.0,171.0,1004.0,-83.0,-1
0.0599,-12.0,-14.0,-3.0,164.0,1021.0,-85.0,-1
0.0606,-8.0,-11.0,-1.0,149.0,1005.0,-86.0,-1
0.0612,-7.0,-7.0,-2.0,148.0,997.0,-75.0,-1
0.062,-8.0,-8.0,0.0,142.0,1006.0,-52.0,-1
0.063,-8.0,-10.0,1.0,129.0,1019.0,-43.0,-1
0.1205,-6.0,-11.0,1.0,100.0,1017.0,-31.0,-1
0.1495,-8.0,-10.0,3.0,108.0,988.0,-14.0,-1
0.1496,-13.0,-10.0,8.0,104.0,1005.0,-9.0,-1
0.1503,-13.0,-10.0,11.0,92.0,1005.0,11.0,-1
0.1509,-8.0,-4.0,13.0,83.0,1013.0,-42.0,-1
0.1518,-11.0,-13.0,10.0,79.0,1049.0,-23.0,-1
0.1796,-6.0,-16.0,9.0,77.0,1024.0,-8.0,-1
0.1799,-7.0,-20.0,8.0,73.0,1022.0,-18.0,-1
0.2103,-4.0,-22.0,8.0,65.0,1014.0,-21.0,-1
0.2107,-2.0,-25.0,8.0,64.0,984.0,-11.0,-1
0.24,-3.0,-27.0,8.0,64.0,948.0,-6.0,-1
0.2403,-6.0,-29.0,6.0,65.0,933.0,-23.0,-1
0.2692,-6.0,-29.0,2.0,70.0,923.0,-44.0,-1
0.2699,-6.0,-28.0,0.0,83.0,921.0,-63.0,-1
0.2994,-8.0,-27.0,-1.0,83.0,938.0,-66.0,-1
0.3297,-10.0,-23.0,-1.0,100.0,966.0,-81.0,-1
0.3299,-9.0,-22.0,-2.0,114.0,959.0,-80.0,-1
0.3307,-8.0,-22.0,-2.0,124.0,972.0,-89.0,-1
0.3605,-5.0,-24.0,-3.0,134.0,971.0,-92.0,-1
0.3608,-5.0,-26.0,-4.0,145.0,988.0,-90.0,-1
0.39,-6.0,-25.0,-4.0,143.0,1006.0,-93.0,-1
0.4201,-4.0,-22.0,-4.0,146.0,1035.0,-86.0,-1
0.4206,-1.0,-22.0,-1.0,177.0,1034.0,-55.0,-1
0.4208,-3.0,-24.0,1.0,175.0,1025.0,-29.0,-1
0.45,-6.0,-24.0,3.0,177.0,1020.0,-28.0,-1
0.4505,-6.0,-22.0,3.0,173.0,1018.0,-34.0,-1
0.4802,-5.0,-23.0,4.0,186.0,1003.0,-27.0,-1
0.5101,-6.0,-22.0,5.0,173.0,992.0,-23.0,-1
0.5102,-7.0,-18.0,2.0,183.0,1028.0,-13.0,-1
0.5107,-6.0,-18.0,7.0,216.0,1062.0,10.0,-1
0.5395,-7.0,-19.0,11.0,231.0,1071.0,42.0,-1
0.5403,-9.0,-21.0,14.0,254.0,1099.0,64.0,-1
0.5697,-7.0,-28.0,20.0,273.0,1130.0,67.0,-1
0.5702,-4.0,-35.0,25.0,264.0,1143.0,76.0,-1
0.6003,0.0,-39.0,27.0,240.0,1142.0,51.0,-1
0.6009,1.0,-39.0,31.0,238.0,1099.0,47.0,-1
0.6601,-2.0,-38.0,36.0,224.0,1083.0,42.0,-1
0.6905,-5.0,-36.0,37.0,220.0,1081.0,42.0,-1
0.6908,-8.0,-36.0,40.0,225.0,1069.0,54.0,-1
0.691,-11.0,-36.0,42.0,207.0,1064.0,56.0,-1
0.6913,-9.0,-36.0,45.0,192.0,1052.0,50.0,-1
0.6923,-9.0,-36.0,47.0,177.0,1002.0,56.0,-1
0.7198,-14.0,-35.0,45.0,164.0,970.0,60.0,-1
0.7206,-18.0,-34.0,42.0,154.0,960.0,66.0,-1
0.7499,-21.0,-34.0,40.0,148.0,957.0,66.0,-1
0.7504,-23.0,-36.0,39.0,143.0,947.0,59.0,-1
0.7798,-22.0,-39.0,36.0,138.0,921.0,61.0,-1
0.7805,-24.0,-39.0,34.0,131.0,914.0,76.0,-1
0.8094,-29.0,-38.0,30.0,139.0,900.0,86.0,-1
0.8397,-33.0,-38.0,28.0,141.0,910.0,93.0,-1
0.84,-37.0,-40.0,26.0,149.0,907.0,92.0,-1
0.8409,-40.0,-43.0,25.0,156.0,905.0,95.0,-1
0.8693,-41.0,-47.0,21.0,160.0,915.0,91.0,-1
0.8702,-40.0,-49.0,19.0,165.0,922.0,79.0,-1
0.8996,-40.0,-48.0,13.0,164.0,918.0,84.0,-1
0.9002,-43.0,-46.0,10.0,199.0,945.0,84.0,-1
0.9598,-46.0,-47.0,9.0,219.0,972.0,84.0,-1
0.9601,-45.0,-47.0,9.0,238.0,1001.0,75.0,-1
0.9609,-44.0,-48.0,11.0,255.0,1015.0,70.0,-1
0.9616,-46.0,-45.0,13.0,273.0,1001.0,80.0,-1
0.9896,-50.0,-44.0,12.0,278.0,999.0,89.0,-1
0.9901,-49.0,-45.0,11.0,290.0,1007.0,86.0,-1
1.0196,-43.0,-50.0,9.0,304.0,999.0,90.0,-1
1.0495,-40.0,-56.0,12.0,310.0,991.0,78.0,-1
1.0505,-37.0,-60.0,18.0,306.0,970.0,60.0,-1
1.08,-38.0,-61.0,19.0,293.0,927.0,31.0,-1
1.0805,-39.0,-60.0,17.0,284.0,921.0,0.0,-1
1.0812,-42.0,-52.0,16.0,288.0,898.0,-19.0,-1
1.1095,-44.0,-46.0,14.0,289.0,888.0,-26.0,-1
1.1101,-43.0,-41.0,12.0,312.0,884.0,-21.0,-1
1.1396,-40.0,-38.0,9.0,320.0,888.0,5.0,-1
1.1402,-39.0,-40.0,8.0,339.0,887.0,19.0,-1
1.1694,-38.0,-41.0,8.0,333.0,888.0,18.0,-1
1.1998,-36.0,-40.0,6.0,335.0,881.0,19.0,-1
1.2,-35.0,-39.0,5.0,338.0,861.0,32.0,-1
1.201,-35.0,-35.0,2.0,335.0,849.0,44.0,-1
1.2296,-35.0,-32.0,0.0,338.0,849.0,62.0,-1
1.2304,-34.0,-31.0,-2.0,340.0,848.0,82.0,-1
1.2598,-33.0,-31.0,-5.0,344.0,839.0,101.0,-1
1.2602,-33.0,-33.0,-7.0,368.0,821.0,112.0,-1
1.2894,-29.0,-39.0,-9.0,373.0,806.0,108.0,-1
1.2904,-25.0,-41.0,-14.0,377.0,780.0,106.0,-1
1.3199,-22.0,-42.0,-20.0,378.0,767.0,120.0,-1
1.32,-25.0,-39.0,-22.0,384.0,763.0,135.0,-1
1.3495,-31.0,-36.0,-23.0,391.0,763.0,159.0,-1
1.3503,-36.0,-40.0,-23.0,386.0,761.0,162.0,-1
1.4105,-35.0,-47.0,-24.0,374.0,772.0,142.0,-1
1.4106,-27.0,-57.0,-27.0,355.0,747.0,101.0,-1
1.4107,-16.0,-70.0,-30.0,329.0,719.0,52.0,-1
1.4117,-10.0,-75.0,-32.0,295.0,721.0,-7.0,-1
1.4402,-10.0,-71.0,-33.0,266.0,654.0,-101.0,-1
1.4702,-15.0,-71.0,-35.0,249.0,648.0,-141.0,-1
1.4702,-17.0,-71.0,-37.0,216.0,652.0,-185.0,-1
1.5,-12.0,-72.0,-42.0,205.0,648.0,-253.0,-1
1.5306,0.0,-75.0,-45.0,189.0,645.0,-314.0,-1
1.5307,12.0,-75.0,-49.0,156.0,651.0,-356.0,-1
1.5309,19.0,-71.0,-52.0,109.0,635.0,-420.0,-1
1.5603,14.0,-62.0,-57.0,56.0,613.0,-504.0,-1
1.5898,-6.0,-37.0,-62.0,35.0,651.0,-621.0,-1
1.5902,-12.0,-7.0,-66.0,21.0,731.0,-724.0,-1
1.6201,0.0,18.0,-65.0,26.0,783.0,-763.0,-1
1.6498,24.0,40.0,-68.0,-32.0,802.0,-773.0,-1
1.6797,30.0,49.0,-74.0,-169.0,861.0,-962.0,-1
1.7106,71.0,37.0,-86.0,-303.0,1036.0,-1262.0,-1
1.7397,126.0,31.0,-100.0,-748.0,1248.0,-1699.0,-1
1.7699,119.0,131.0,-112.0,-1243.0,1581.0,-2174.0,-1
1.8,206.0,209.0,-136.0,-1798.0,2134.0,-2522.0,-1
1.8003,271.0,235.0,-156.0,-2199.0,2357.0,-2677.0,-1
1.8302,297.0,308.0,-180.0,-2714.0,2526.0,-2909.0,-1
1.86,279.0,640.0,-226.0,-3618.0,3239.0,-2755.0,-1
1.8603,283.0,736.0,-224.0,-3783.0,3598.0,-2350.0,-1
1.8898,273.0,801.0,-196.0,-3898.0,3811.0,-1885.0,-1
1.9201,212.0,840.0,-119.0,-3723.0,3595.0,-1048.0,-1
1.9205,181.0,818.0,-78.0,-3605.0,3342.0,-773.0,-1
1.9502,156.0,798.0,-50.0,-3389.0,3076.0,-434.0,-1
1.9505,129.0,756.0,-28.0,-2882.0,2723.0,-125.0,-1
1.9805,115.0,670.0,15.0,-2315.0,2322.0,58.0,-1
1.9806,115.0,557.0,51.0,-1873.0,1909.0,96.0,-1
2.0103,119.0,456.0,69.0,-1567.0,1540.0,72.0,-1
2.0105,118.0,385.0,79.0,-1350.0,1269.0,32.0,-1
2.0398,113.0,339.0,78.0,-1208.0,1059.0,5.0,-1
2.0402,97.0,314.0,68.0,-1059.0,870.0,-37.0,-1
2.0695,77.0,300.0,62.0,-885.0,792.0,-26.0,-1
2.0706,72.0,281.0,58.0,-733.0,753.0,35.0,-1
2.0995,70.0,251.0,56.0,-597.0,728.0,101.0,-1
2.1001,66.0,215.0,59.0,-475.0,719.0,159.0,-1
2.1303,63.0,181.0,67.0,-375.0,696.0,191.0,-1
2.1306,66.0,147.0,74.0,-302.0,653.0,210.0,-1
2.1597,73.0,123.0,74.0,-262.0,614.0,224.0,-1
2.1604,78.0,112.0,73.0,-206.0,585.0,228.0,-1
2.1903,86.0,97.0,71.0,-120.0,550.0,258.0,-1
2.1904,93.0,81.0,67.0,-27.0,522.0,287.0,-1
2.22,97.0,64.0,66.0,42.0,484.0,308.0,-1
2.2202,95.0,56.0,62.0,110.0,409.0,351.0,-1
2.2499,87.0,52.0,51.0,186.0,366.0,408.0,-1
2.2505,82.0,43.0,40.0,273.0,378.0,442.0,-1
2.2799,81.0,31.0,28.0,331.0,401.0,451.0,-1
2.2802,86.0,20.0,15.0,382.0,408.0,453.0,-1
2.3704,85.0,14.0,2.0,427.0,387.0,471.0,-1
2.3704,73.0,16.0,-8.0,454.0,383.0,491.0,-1
2.3706,53.0,21.0,-23.0,497.0,420.0,494.0,-1
2.3711,46.0,19.0,-30.0,541.0,480.0,483.0,-1
2.3723,47.0,10.0,-34.0,578.0,530.0,497.0,-1
2.4,36.0,-10.0,-36.0,638.0,551.0,503.0,-1
2.4604,28.0,-18.0,-38.0,657.0,572.0,478.0,-1
2.4607,20.0,-27.0,-39.0,668.0,601.0,440.0,-1
2.49,16.0,-35.0,-40.0,683.0,630.0,381.0,-1
2.4903,13.0,-40.0,-39.0,693.0,648.0,325.0,-1
2.4913,6.0,-42.0,-40.0,715.0,649.0,280.0,-1
2.4914,-4.0,-42.0,-39.0,754.0,671.0,269.0,-1
2.4922,-11.0,-40.0,-38.0,787.0,695.0,259.0,-1
2.5203,-13.0,-45.0,-37.0,821.0,709.0,255.0,-1
2.5207,-5.0,-56.0,-39.0,849.0,732.0,243.0,-1
2.5501,-4.0,-62.0,-34.0,866.0,739.0,221.0,-1
2.5504,-13.0,-66.0,-29.0,872.0,722.0,192.0,-1
2.5804,-25.0,-65.0,-20.0,865.0,735.0,129.0,-1
2.5805,-29.0,-62.0,-17.0,858.0,729.0,77.0,-1
2.6102,-27.0,-59.0,-18.0,860.0,710.0,52.0,-1
2.6105,-25.0,-58.0,-18.0,863.0,695.0,44.0,-1
2.64,-21.0,-58.0,-19.0,862.0,684.0,44.0,-1
2.6405,-21.0,-59.0,-15.0,864.0,659.0,41.0,-1
2.6703,-24.0,-58.0,-12.0,849.0,617.0,31.0,-1
2.6706,-29.0,-54.0,-12.0,828.0,601.0,14.0,-1
2.7003,-33.0,-49.0,-12.0,803.0,616.0,-6.0,-1
2.7006,-34.0,-42.0,-12.0,790.0,652.0,-26.0,-1
2.7604,-30.0,-40.0,-12.0,780.0,650.0,-21.0,-1
2.7607,-23.0,-45.0,-11.0,729.0,644.0,10.0,-1
2.7613,-20.0,-48.0,-12.0,684.0,632.0,29.0,-1
2.7616,-24.0,-48.0,-9.0,672.0,616.0,38.0,-1
2.79,-30.0,-46.0,-9.0,645.0,599.0,57.0,-1
2.7904,-34.0,-45.0,-15.0,646.0,579.0,72.0,-1
2.8199,-34.0,-48.0,-20.0,674.0,600.0,73.0,-1
2.8204,-32.0,-54.0,-19.0,701.0,622.0,63.0,-1
2.8802,-33.0,-61.0,-16.0,702.0,638.0,56.0,-1
2.8806,-34.0,-69.0,-19.0,690.0,637.0,54.0,-1
2.8809,-37.0,-75.0,-23.0,697.0,633.0,37.0,-1
2.8816,-44.0,-75.0,-25.0,686.0,670.0,4.0,-1
2.9101,-50.0,-72.0,-26.0,687.0,724.0,-27.0,-1
2.9104,-49.0,-74.0,-27.0,711.0,769.0,-52.0,-1
2.9402,-45.0,-80.0,-28.0,716.0,784.0,-60.0,-1
2.9701,-48.0,-81.0,-25.0,738.0,771.0,-72.0,-1
2.9707,-59.0,-77.0,-22.0,726.0,771.0,-72.0,-1
2.9708,-66.0,-78.0,-21.0,714.0,796.0,-60.0,-1
2.9999,-70.0,-79.0,-17.0,704.0,816.0,-85.0,-1
3.0003,-65.0,-84.0,-10.0,713.0,832.0,-113.0,-1
3.0295,-56.0,-92.0,-4.0,701.0,804.0,-106.0,-1
3.0301,-53.0,-99.0,-4.0,669.0,756.0,-103.0,-1
3.0601,-59.0,-102.0,-4.0,651.0,745.0,-130.0,-1
3.0604,-68.0,-99.0,0.0,635.0,754.0,-172.0,-1
3.0895,-78.0,-91.0,-3.0,623.0,729.0,-189.0,-1
3.0902,-85.0,-86.0,-4.0,650.0,744.0,-208.0,-1
3.1199,-80.0,-88.0,-1.0,664.0,755.0,-220.0,-1
3.1204,-73.0,-93.0,-7.0,666.0,721.0,-223.0,-1
3.1493,-68.0,-97.0,-7.0,649.0,737.0,-235.0,-1
3.1498,-68.0,-97.0,-5.0,656.0,734.0,-248.0,-1
3.1793,-72.0,-92.0,-2.0,659.0,717.0,-267.0,-1
3.18,-72.0,-90.0,-2.0,667.0,713.0,-259.0,-1
3.2103,-74.0,-86.0,-1.0,668.0,673.0,-245.0,-1
3.2104,-78.0,-81.0,-3.0,637.0,644.0,-238.0,-1
3.2404,-84.0,-76.0,-6.0,643.0,635.0,-233.0,-1
3.2407,-91.0,-73.0,-6.0,631.0,649.0,-241.0,-1
3.2698,-94.0,-67.0,-9.0,617.0,669.0,-239.0,-1
3.27,-91.0,-68.0,-10.0,652.0,734.0,-226.0,-1
3.2999,-80.0,-78.0,-7.0,651.0,771.0,-220.0,-1
3.3004,-69.0,-90.0,-6.0,642.0,777.0,-233.0,-1
3.3305,-63.0,-100.0,-2.0,619.0,783.0,-213.0,-1
3.3306,-70.0,-97.0,0.0,551.0,735.0,-192.0,-1
3.36,-78.0,-92.0,-1.0,499.0,697.0,-157.0,-1
3.3606,-86.0,-89.0,-5.0,499.0,701.0,-115.0,-1
3.39,-84.0,-97.0,-3.0,485.0,718.0,-124.0,-1
3.3903,-66.0,-116.0,-7.0,498.0,753.0,-131.0,-1
3.42,-50.0,-134.0,-12.0,462.0,716.0,-133.0,-1
3.4209,-55.0,-137.0,-13.0,410.0,680.0,-143.0,-1
3.4499,-72.0,-126.0,-17.0,361.0,679.0,-140.0,-1
3.4798,-86.0,-117.0,-25.0,375.0,725.0,-152.0,-1
3.4801,-90.0,-119.0,-31.0,418.0,811.0,-174.0,-1
3.4808,-78.0,-128.0,-32.0,405.0,856.0,-182.0,-1
3.5101,-64.0,-135.0,-33.0,347.0,823.0,-161.0,-1
3.5107,-57.0,-137.0,-38.0,299.0,779.0,-129.0,-1
3.5401,-63.0,-137.0,-43.0,264.0,766.0,-94.0,-1
3.5404,-73.0,-139.0,-47.0,237.0,819.0,-87.0,-1
3.5702,-76.0,-144.0,-53.0,215.0,871.0,-104.0,-1
3.5705,-71.0,-153.0,-55.0,188.0,903.0,-114.0,-1
3.6002,-64.0,-162.0,-56.0,114.0,877.0,-111.0,-1
3.6005,-64.0,-166.0,-63.0,30.0,842.0,-105.0,-1
3.6304,-76.0,-167.0,-78.0,3.0,915.0,-131.0,-1
3.6306,-86.0,-163.0,-87.0,-11.0,1047.0,-160.0,-1
3.66,-97.0,-157.0,-83.0,36.0,1186.0,-200.0,-1
3.6605,-92.0,-162.0,-80.0,34.0,1276.0,-225.0,-1
3.6912,-75.0,-170.0,-81.0,14.0,1313.0,-263.0,-1
3.6914,-61.0,-176.0,-81.0,-4.0,1292.0,-273.0,-1
3.7201,-54.0,-179.0,-81.0,-56.0,1250.0,-242.0,-1
3.7204,-69.0,-171.0,-82.0,-119.0,1210.0,-204.0,-1
3.7498,-90.0,-168.0,-76.0,-77.0,1287.0,-188.0,-1
3.7501,-96.0,-177.0,-66.0,-70.0,1368.0,-228.0,-1
3.7798,-83.0,-188.0,-55.0,-81.0,1387.0,-278.0,-1
3.7804,-64.0,-198.0,-47.0,-110.0,1361.0,-295.0,-1
3.8102,-51.0,-199.0,-40.0,-143.0,1290.0,-288.0,-1
3.8105,-53.0,-196.0,-34.0,-151.0,1233.0,-277.0,-1
3.8399,-67.0,-191.0,-33.0,-172.0,1201.0,-272.0,-1
3.8404,-87.0,-186.0,-38.0,-205.0,1207.0,-226.0,-1
3.8699,-102.0,-192.0,-28.0,-81.0,1271.0,-335.0,-1
3.9001,-74.0,-189.0,-18.0,-97.0,1375.0,-318.0,-1
3.9007,-51.0,-195.0,-11.0,-81.0,1271.0,-330.0,-1
3.9009,-41.0,-188.0,-9.0,-91.0,1211.0,-310.0,-1
3.9305,-42.0,-173.0,-10.0,-82.0,1159.0,-288.0,-1
3.9308,-50.0,-156.0,-11.0,-62.0,1138.0,-237.0,-1
3.9599,-55.0,-138.0,-11.0,-40.0,1159.0,-200.0,-1
3.9603,-53.0,-128.0,-10.0,23.0,1157.0,-166.0,-1
3.9899,-42.0,-132.0,0.0,53.0,1185.0,-130.0,-1
3.9901,-33.0,-136.0,7.0,50.0,1139.0,-108.0,-1
4.0203,-36.0,-135.0,9.0,48.0,1090.0,-79.0,-1
4.0207,-49.0,-126.0,10.0,50.0,1092.0,-55.0,-1
4.0509,-56.0,-118.0,9.0,74.0,1127.0,-55.0,-1
4.0513,-49.0,-120.0,13.0,122.0,1137.0,-67.0,-1
4.0801,-40.0,-124.0,18.0,134.0,1122.0,-77.0,-1
4.1408,-33.0,-127.0,24.0,133.0,1103.0,-85.0,-1
4.1409,-29.0,-124.0,28.0,121.0,1058.0,-83.0,-1
4.1413,-35.0,-117.0,29.0,130.0,1024.0,-67.0,-1
4.1416,-39.0,-113.0,29.0,152.0,1027.0,-52.0,-1
4.1424,-39.0,-110.0,31.0,179.0,1040.0,-32.0,-1
4.1701,-35.0,-115.0,35.0,195.0,1030.0,-30.0,-1
4.1704,-25.0,-124.0,38.0,206.0,1012.0,-32.0,-1
4.2001,-14.0,-134.0,40.0,200.0,991.0,-38.0,-1
4.2003,-6.0,-137.0,40.0,180.0,974.0,-58.0,-1
4.2304,-2.0,-141.0,42.0,193.0,901.0,-81.0,-1
4.2309,-4.0,-141.0,43.0,158.0,856.0,-125.0,-1
4.26,-3.0,-135.0,40.0,149.0,824.0,-172.0,-1
4.2605,0.0,-129.0,34.0,139.0,786.0,-205.0,-1
4.2902,1.0,-114.0,31.0,117.0,773.0,-233.0,-1
4.3198,4.0,-104.0,27.0,158.0,770.0,-242.0,-1
4.3803,-4.0,-86.0,23.0,175.0,762.0,-239.0,-1
4.3809,-5.0,-81.0,20.0,185.0,775.0,-246.0,-1
4.3809,-3.0,-81.0,16.0,202.0,765.0,-261.0,-1
4.3812,2.0,-83.0,17.0,176.0,745.0,-301.0,-1
4.3821,9.0,-83.0,13.0,151.0,693.0,-341.0,-1
4.4096,11.0,-79.0,9.0,118.0,645.0,-385.0,-1
4.4401,6.0,-63.0,1.0,87.0,642.0,-440.0,-1
4.4406,6.0,-51.0,-6.0,70.0,644.0,-475.0,-1
4.4412,15.0,-41.0,-16.0,91.0,672.0,-511.0,-1
4.4707,28.0,-35.0,-26.0,80.0,698.0,-528.0,-1
4.5002,32.0,-28.0,-36.0,77.0,706.0,-562.0,-1
4.53,27.0,-12.0,-39.0,13.0,754.0,-677.0,-1
4.5599,26.0,6.0,-30.0,-203.0,803.0,-849.0,-1
4.5903,57.0,-5.0,-31.0,-546.0,758.0,-1059.0,-1
4.6204,99.0,-12.0,-67.0,-1023.0,765.0,-1336.0,-1
4.6501,52.0,109.0,-103.0,-1536.0,919.0,-1670.0,-1
4.6802,143.0,195.0,-143.0,-1986.0,1406.0,-1944.0,-1
4.6804,203.0,225.0,-182.0,-2313.0,1566.0,-2077.0,-1
4.7097,216.0,286.0,-225.0,-2737.0,1886.0,-2254.0,-1
4.7395,249.0,488.0,-294.0,-3578.0,2849.0,-2649.0,-1
4.7402,296.0,612.0,-313.0,-3896.0,3412.0,-2633.0,-1
4.7695,334.0,729.0,-325.0,-4109.0,3954.0,-2351.0,-1
4.7704,324.0,831.0,-321.0,-4261.0,4384.0,-1937.0,-1
4.7995,265.0,924.0,-276.0,-4314.0,4627.0,-1491.0,-1
4.8001,195.0,990.0,-200.0,-4241.0,4632.0,-1075.0,-1
4.8295,157.0,1004.0,-109.0,-4115.0,4472.0,-757.0,-1
4.8305,167.0,958.0,-18.0,-3882.0,4121.0,-528.0,-1
4.8603,210.0,866.0,33.0,-3553.0,3679.0,-399.0,-1
4.8606,248.0,777.0,58.0,-3194.0,3156.0,-277.0,-1
4.8896,251.0,705.0,70.0,-2797.0,2699.0,-155.0,-1
4.8901,226.0,642.0,82.0,-2373.0,2255.0,-63.0,-1
4.9206,194.0,584.0,97.0,-2000.0,1839.0,0.0,-1
4.9209,167.0,525.0,108.0,-1690.0,1527.0,40.0,-1
4.95,155.0,470.0,109.0,-1464.0,1296.0,82.0,-1
4.9504,151.0,420.0,102.0,-1237.0,1096.0,103.0,-1
4.9805,142.0,376.0,90.0,-1044.0,968.0,137.0,-1
4.9806,129.0,342.0,84.0,-857.0,878.0,172.0,-1
5.0098,110.0,315.0,83.0,-699.0,808.0,206.0,-1
5.0396,92.0,290.0,85.0,-570.0,768.0,239.0,-1
5.0398,79.0,265.0,88.0,-446.0,739.0,280.0,-1
5.0408,76.0,239.0,96.0,-335.0,719.0,319.0,-1
5.0695,87.0,201.0,104.0,-244.0,697.0,366.0,-1
5.0701,103.0,161.0,108.0,-171.0,637.0,413.0,-1
5.0995,111.0,121.0,106.0,-117.0,566.0,460.0,-1
5.1001,106.0,107.0,100.0,-71.0,524.0,493.0,-1
5.1295,100.0,95.0,91.0,-6.0,478.0,523.0,-1
5.1302,95.0,83.0,81.0,66.0,465.0,556.0,-1
5.1601,93.0,70.0,76.0,118.0,451.0,606.0,-1
5.1604,92.0,59.0,66.0,151.0,421.0,653.0,-1
5.1903,91.0,49.0,52.0,196.0,389.0,695.0,-1
5.1907,85.0,42.0,34.0,230.0,380.0,727.0,-1
5.2203,71.0,41.0,15.0,265.0,393.0,751.0,-1
5.2206,54.0,43.0,-1.0,308.0,469.0,757.0,-1
5.2802,44.0,43.0,-13.0,354.0,527.0,763.0,-1
5.2804,42.0,35.0,-21.0,401.0,578.0,777.0,-1
5.2804,45.0,26.0,-27.0,415.0,611.0,780.0,-1
5.2814,46.0,19.0,-31.0,423.0,622.0,784.0,-1
5.31,42.0,11.0,-33.0,447.0,608.0,790.0,-1
5.3104,31.0,4.0,-35.0,471.0,625.0,780.0,-1
5.3399,20.0,0.0,-37.0,492.0,637.0,761.0,-1
5.3402,11.0,-5.0,-36.0,512.0,658.0,740.0,-1
5.37,6.0,-14.0,-34.0,541.0,667.0,718.0,-1
5.4001,7.0,-20.0,-34.0,553.0,669.0,711.0,-1
5.4004,10.0,-30.0,-34.0,577.0,672.0,694.0,-1
5.43,10.0,-35.0,-34.0,591.0,660.0,688.0,-1
5.4603,2.0,-41.0,-32.0,613.0,649.0,669.0,-1
5.4603,-4.0,-42.0,-32.0,620.0,648.0,654.0,-1
5.4607,-16.0,-44.0,-31.0,649.0,649.0,619.0,-1
5.4618,-21.0,-46.0,-31.0,655.0,656.0,591.0,-1
5.4903,-24.0,-49.0,-28.0,645.0,665.0,566.0,-1
5.4906,-26.0,-53.0,-25.0,623.0,666.0,538.0,-1
5.5202,-26.0,-55.0,-21.0,588.0,661.0,508.0,-1
5.5208,-25.0,-56.0,-19.0,566.0,649.0,493.0,-1
5.5496,-23.0,-57.0,-19.0,545.0,640.0,474.0,-1
5.5501,-21.0,-58.0,-19.0,542.0,636.0,452.0,-1
5.5795,-20.0,-60.0,-18.0,527.0,628.0,439.0,-1
5.6096,-17.0,-61.0,-20.0,503.0,605.0,422.0,-1
5.6101,-14.0,-61.0,-22.0,487.0,575.0,423.0,-1
5.6108,-15.0,-59.0,-25.0,472.0,553.0,434.0,-1
5.6396,-18.0,-60.0,-29.0,485.0,554.0,446.0,-1
5.6402,-22.0,-65.0,-32.0,501.0,557.0,444.0,-1
5.6695,-25.0,-71.0,-34.0,508.0,566.0,424.0,-1
5.6703,-25.0,-76.0,-37.0,516.0,571.0,407.0,-1
5.7003,-22.0,-82.0,-42.0,507.0,576.0,393.0,-1
5.7004,-21.0,-86.0,-45.0,504.0,579.0,380.0,-1
5.73,-25.0,-87.0,-47.0,499.0,585.0,372.0,-1
5.7303,-29.0,-87.0,-48.0,485.0,602.0,356.0,-1
5.7598,-30.0,-90.0,-50.0,500.0,625.0,345.0,-1
5.7601,-30.0,-94.0,-50.0,508.0,644.0,335.0,-1
5.7895,-27.0,-101.0,-49.0,493.0,656.0,328.0,-1
5.7902,-24.0,-109.0,-49.0,472.0,666.0,312.0,-1
5.8201,-25.0,-116.0,-50.0,446.0,673.0,301.0,-1
5.8204,-25.0,-123.0,-49.0,441.0,666.0,295.0,-1
5.8504,-25.0,-129.0,-49.0,443.0,664.0,274.0,-1
5.8802,-26.0,-137.0,-50.0,421.0,680.0,253.0,-1
5.8803,-27.0,-143.0,-51.0,398.0,685.0,225.0,-1
5.8961,-30.0,-149.0,-55.0,400.0,703.0,195.0,-1
5.9115,-34.0,-154.0,-57.0,408.0,741.0,155.0,-1
5.9116,-33.0,-159.0,-58.0,433.0,762.0,134.0,-1
5.9394,-32.0,-163.0,-59.0,429.0,778.0,118.0,-1
5.9399,-33.0,-168.0,-61.0,409.0,777.0,111.0,-1
5.9703,-39.0,-169.0,-61.0,415.0,796.0,87.0,-1
5.9704,-45.0,-172.0,-68.0,448.0,841.0,53.0,-1
6.0001,-53.0,-174.0,-70.0,450.0,899.0,-8.0,-1
6.0006,-59.0,-168.0,-69.0,430.0,920.0,-37.0,-1
6.0301,-65.0,-160.0,-71.0,414.0,928.0,-44.0,-1
6.0302,-70.0,-157.0,-76.0,465.0,991.0,-56.0,-1
6.06,-64.0,-167.0,-77.0,489.0,1083.0,-65.0,-1
6.0602,-55.0,-177.0,-69.0,489.0,1123.0,-73.0,-1
6.0901,-53.0,-183.0,-57.0,458.0,1121.0,-82.0,-1
6.0906,-54.0,-186.0,-50.0,396.0,1089.0,-75.0,-1
6.1203,-58.0,-187.0,-47.0,373.0,1080.0,-92.0,-1
6.1204,-63.0,-189.0,-47.0,337.0,1089.0,-104.0,-1
6.1501,-64.0,-192.0,-46.0,325.0,1102.0,-113.0,-1
6.1505,-61.0,-202.0,-43.0,307.0,1118.0,-127.0,-1
6.2096,-60.0,-212.0,-38.0,262.0,1103.0,-135.0,-1
6.2098,-60.0,-218.0,-31.0,195.0,1067.0,-151.0,-1
6.2106,-63.0,-220.0,-27.0,146.0,1028.0,-165.0,-1
6.2114,-69.0,-222.0,-30.0,100.0,1012.0,-188.0,-1
6.2393,-75.0,-222.0,-31.0,66.0,1006.0,-211.0,-1
6.2693,-80.0,-225.0,-33.0,16.0,1008.0,-242.0,-1
6.2699,-78.0,-228.0,-35.0,0.0,1028.0,-267.0,-1
6.2709,-73.0,-237.0,-38.0,-15.0,1040.0,-291.0,-1
6.2994,-68.0,-243.0,-38.0,-51.0,1021.0,-310.0,-1
6.3,-62.0,-251.0,-37.0,-83.0,1018.0,-353.0,-1
6.3295,-59.0,-257.0,-36.0,-114.0,1003.0,-402.0,-1
6.3301,-64.0,-256.0,-35.0,-178.0,971.0,-452.0,-1
6.3595,-78.0,-245.0,-39.0,-219.0,954.0,-492.0,-1
6.3896,-90.0,-232.0,-47.0,-207.0,984.0,-531.0,-1
6.39,-93.0,-220.0,-52.0,-211.0,1051.0,-562.0,-1
6.3909,-86.0,-210.0,-52.0,-189.0,1116.0,-593.0,-1
6.4194,-71.0,-205.0,-55.0,-177.0,1146.0,-612.0,-1
6.4203,-56.0,-200.0,-54.0,-175.0,1134.0,-603.0,-1
6.4494,-42.0,-191.0,-52.0,-194.0,1106.0,-573.0,-1
6.4504,-35.0,-179.0,-53.0,-206.0,1052.0,-536.0,-1
6.48,-37.0,-166.0,-54.0,-240.0,1010.0,-482.0,-1
6.4806,-42.0,-154.0,-57.0,-243.0,992.0,-442.0,-1
6.5399,-42.0,-154.0,-58.0,-237.0,998.0,-405.0,-1
6.5403,-33.0,-160.0,-60.0,-275.0,1016.0,-388.0,-1
6.5405,-16.0,-163.0,-68.0,-391.0,978.0,-402.0,-1
6.5415,0.0,-156.0,-84.0,-359.0,941.0,-374.0,-1
6.5694,-7.0,-147.0,-87.0,-379.0,953.0,-311.0,-1
6.57,-19.0,-143.0,-87.0,-383.0,973.0,-236.0,-1
6.5995,-23.0,-154.0,-90.0,-417.0,1003.0,-183.0,-1
6.6001,-24.0,-173.0,-82.0,-409.0,1066.0,-175.0,-1
6.6295,-17.0,-190.0,-73.0,-472.0,1097.0,-191.0,-1
6.6302,-7.0,-200.0,-73.0,-513.0,1094.0,-217.0,-1
6.6947,0.0,-202.0,-76.0,-543.0,1122.0,-222.0,-1
6.6949,7.0,-213.0,-74.0,-533.0,1119.0,-225.0,-1
6.695,14.0,-230.0,-71.0,-556.0,1134.0,-239.0,-1
6.6951,23.0,-235.0,-70.0,-580.0,1145.0,-270.0,-1
6.7261,29.0,-235.0,-70.0,-583.0,1156.0,-266.0,-1
6.7262,33.0,-234.0,-67.0,-572.0,1160.0,-275.0,-1
6.7794,35.0,-230.0,-58.0,-556.0,1143.0,-286.0,-1
6.7797,37.0,-224.0,-52.0,-539.0,1112.0,-283.0,-1
6.7803,32.0,-212.0,-50.0,-518.0,1108.0,-261.0,-1
6.7812,27.0,-203.0,-49.0,-487.0,1135.0,-230.0,-1
6.8093,24.0,-196.0,-42.0,-461.0,1171.0,-204.0,-1
6.8099,27.0,-192.0,-31.0,-432.0,1189.0,-195.0,-1
6.8401,33.0,-190.0,-21.0,-423.0,1206.0,-175.0,-1
6.8701,38.0,-185.0,-10.0,-382.0,1189.0,-140.0,-1
6.9008,36.0,-181.0,-4.0,-372.0,1178.0,-102.0,-1
6.9013,35.0,-175.0,0.0,-349.0,1213.0,-61.0,-1
6.9016,33.0,-173.0,10.0,-308.0,1204.0,-17.0,-1
6.9017,33.0,-172.0,21.0,-272.0,1204.0,25.0,-1
6.9905,34.0,-172.0,29.0,-222.0,1202.0,69.0,-1
6.991,33.0,-176.0,36.0,-200.0,1220.0,123.0,-1
6.991,33.0,-184.0,47.0,-152.0,1257.0,162.0,-1
6.9914,36.0,-191.0,68.0,-96.0,1286.0,190.0,-1
6.9922,40.0,-205.0,86.0,-52.0,1272.0,192.0,-1
7.02,40.0,-234.0,97.0,-64.0,1206.0,79.0,-1
7.0207,39.0,-237.0,104.0,-81.0,1174.0,-25.0,-1
7.0499,39.0,-230.0,113.0,-100.0,1147.0,-121.0,-1
7.0503,37.0,-221.0,122.0,-82.0,1095.0,-174.0,-1
7.0799,36.0,-210.0,129.0,-60.0,1058.0,-196.0,-1
7.0803,30.0,-202.0,133.0,-112.0,965.0,-220.0,-1
7.1101,16.0,-191.0,132.0,-152.0,857.0,-290.0,-1
7.1102,2.0,-177.0,124.0,-185.0,791.0,-406.0,-1
7.1403,-3.0,-161.0,113.0,-200.0,753.0,-517.0,-1
7.1405,3.0,-145.0,105.0,-230.0,705.0,-605.0,-1
7.17,4.0,-110.0,103.0,-400.0,492.0,-728.0,-1
7.2,-14.0,-83.0,99.0,-513.0,423.0,-793.0,-1
7.2002,-34.0,-55.0,97.0,-594.0,390.0,-877.0,-1
7.2302,-37.0,-35.0,95.0,-678.0,371.0,-965.0,-1
7.2606,-23.0,-28.0,88.0,-787.0,343.0,-1058.0,-1
7.2608,5.0,-24.0,75.0,-900.0,301.0,-1138.0,-1
7.2897,41.0,-10.0,54.0,-1049.0,244.0,-1197.0,-1
7.2903,73.0,15.0,24.0,-1170.0,211.0,-1224.0,-1
7.291,100.0,32.0,-10.0,-1318.0,276.0,-1220.0,-1
7.3208,121.0,40.0,-55.0,-1503.0,372.0,-1234.0,-1
7.3803,125.0,64.0,-105.0,-1691.0,518.0,-1307.0,-1
7.3805,105.0,195.0,-199.0,-2053.0,1066.0,-1475.0,-1
7.4098,177.0,338.0,-278.0,-2511.0,1964.0,-1646.0,-1
7.4402,242.0,388.0,-310.0,-2850.0,2347.0,-1704.0,-1
7.4405,255.0,462.0,-329.0,-3254.0,2562.0,-1824.0,-1
7.4701,194.0,723.0,-381.0,-3922.0,3331.0,-1629.0,-1
7.4706,151.0,833.0,-363.0,-3927.0,3687.0,-1353.0,-1
7.5003,106.0,895.0,-287.0,-3804.0,3876.0,-1062.0,-1
7.5302,140.0,856.0,-116.0,-3556.0,3755.0,-736.0,-1
7.5304,202.0,795.0,-72.0,-3511.0,3489.0,-622.0,-1
7.5606,240.0,753.0,-58.0,-3356.0,3221.0,-453.0,-1
7.5903,208.0,707.0,-22.0,-2814.0,2794.0,-46.0,-1
7.5907,173.0,666.0,21.0,-2427.0,2458.0,91.0,-1
7.6201,156.0,606.0,56.0,-2077.0,2107.0,162.0,-1
7.6204,157.0,533.0,71.0,-1763.0,1772.0,199.0,-1
7.6503,159.0,460.0,72.0,-1488.0,1459.0,213.0,-1
7.6507,152.0,398.0,65.0,-1261.0,1215.0,207.0,-1
7.6801,140.0,352.0,53.0,-1062.0,1035.0,199.0,-1
7.6804,120.0,320.0,40.0,-867.0,916.0,196.0,-1
7.7099,97.0,297.0,34.0,-687.0,869.0,214.0,-1
7.7102,80.0,278.0,39.0,-522.0,876.0,244.0,-1
7.7397,77.0,251.0,51.0,-378.0,855.0,275.0,-1
7.7405,87.0,210.0,63.0,-245.0,792.0,289.0,-1
7.7693,102.0,160.0,72.0,-125.0,694.0,298.0,-1
7.7994,110.0,103.0,73.0,-24.0,582.0,275.0,-1
7.7997,105.0,80.0,67.0,21.0,521.0,253.0,-1
7.8008,94.0,76.0,62.0,82.0,462.0,262.0,-1
7.8296,79.0,75.0,57.0,185.0,427.0,277.0,-1
7.8302,72.0,65.0,47.0,276.0,435.0,298.0,-1
7.86,68.0,50.0,35.0,382.0,455.0,305.0,-1
7.8602,65.0,32.0,25.0,477.0,462.0,304.0,-1
7.8902,58.0,19.0,21.0,539.0,465.0,298.0,-1
7.8908,51.0,9.0,18.0,578.0,479.0,289.0,-1
7.9204,46.0,0.0,12.0,596.0,488.0,273.0,-1
7.9207,43.0,-6.0,4.0,621.0,493.0,264.0,-1
7.9501,37.0,-10.0,-3.0,632.0,513.0,253.0,-1
7.9508,30.0,-15.0,-10.0,650.0,538.0,241.0,-1
7.9803,19.0,-18.0,-13.0,655.0,556.0,232.0,-1
7.9806,8.0,-19.0,-14.0,652.0,569.0,216.0,-1
8.0103,3.0,-23.0,-17.0,649.0,580.0,200.0,-1
8.0105,1.0,-30.0,-21.0,644.0,585.0,182.0,-1
8.0403,0.0,-37.0,-25.0,636.0,586.0,166.0,-1
8.0404,-2.0,-41.0,-29.0,633.0,579.0,149.0,-1
8.0705,-7.0,-43.0,-32.0,652.0,574.0,135.0,-1
8.0706,-14.0,-45.0,-34.0,666.0,583.0,115.0,-1
8.0998,-21.0,-47.0,-33.0,704.0,579.0,93.0,-1
8.1002,-30.0,-48.0,-32.0,734.0,594.0,72.0,-1
8.1304,-36.0,-52.0,-33.0,749.0,595.0,46.0,-1
8.1307,-38.0,-54.0,-36.0,760.0,606.0,29.0,-1
8.163,-36.0,-57.0,-37.0,784.0,625.0,21.0,-1
8.1902,-32.0,-63.0,-37.0,791.0,652.0,13.0,-1
8.2201,-28.0,-68.0,-33.0,785.0,648.0,1.0,-1
8.2205,-30.0,-68.0,-31.0,773.0,655.0,-4.0,-1
8.2211,-37.0,-68.0,-28.0,739.0,661.0,-22.0,-1
8.2215,-38.0,-68.0,-26.0,714.0,665.0,-28.0,-1
8.2501,-33.0,-71.0,-25.0,677.0,677.0,-26.0,-1
8.2508,-31.0,-77.0,-27.0,656.0,666.0,-22.0,-1
8.2796,-34.0,-81.0,-28.0,623.0,656.0,-26.0,-1
8.2799,-40.0,-84.0,-30.0,581.0,657.0,-28.0,-1
8.31,-49.0,-85.0,-34.0,538.0,657.0,-28.0,-1
8.3105,-62.0,-85.0,-37.0,495.0,657.0,-23.0,-1
8.3402,-72.0,-87.0,-41.0,467.0,695.0,-30.0,-1
8.3404,-74.0,-96.0,-46.0,446.0,736.0,-51.0,-1
8.3702,-72.0,-107.0,-50.0,419.0,766.0,-71.0,-1
8.3707,-72.0,-115.0,-51.0,406.0,812.0,-102.0,-1
8.4,-75.0,-122.0,-51.0,382.0,833.0,-124.0,-1
8.4004,-78.0,-125.0,-52.0,345.0,860.0,-143.0,-1
8.4305,-78.0,-127.0,-53.0,326.0,898.0,-154.0,-1
8.4306,-78.0,-130.0,-53.0,309.0,921.0,-152.0,-1
8.4603,-83.0,-134.0,-53.0,307.0,946.0,-158.0,-1
8.4605,-89.0,-140.0,-52.0,282.0,967.0,-158.0,-1
8.4899,-100.0,-145.0,-50.0,266.0,965.0,-171.0,-1
8.49,-108.0,-152.0,-49.0,253.0,999.0,-189.0,-1
8.5199,-105.0,-167.0,-49.0,251.0,1040.0,-213.0,-1
8.5201,-98.0,-184.0,-46.0,230.0,1051.0,-243.0,-1
8.55,-94.0,-199.0,-41.0,178.0,1040.0,-283.0,-1
8.5503,-105.0,-198.0,-39.0,122.0,1019.0,-311.0,-1
8.5803,-123.0,-189.0,-39.0,114.0,1034.0,-348.0,-1
8.5806,-129.0,-193.0,-42.0,161.0,1119.0,-398.0,-1
8.6099,-116.0,-213.0,-41.0,180.0,1179.0,-456.0,-1
8.6401,-97.0,-232.0,-35.0,160.0,1198.0,-532.0,-1
8.6405,-87.0,-239.0,-36.0,86.0,1146.0,-577.0,-1
8.6409,-83.0,-226.0,-28.0,38.0,1114.0,-602.0,-1
8.6702,-95.0,-207.0,-26.0,72.0,1038.0,-607.0,-1
8.6705,-107.0,-195.0,-25.0,78.0,1032.0,-595.0,-1
8.7001,-104.0,-194.0,-27.0,104.0,1031.0,-588.0,-1
8.7003,-91.0,-205.0,-29.0,116.0,1035.0,-585.0,-1
8.7299,-79.0,-216.0,-29.0,95.0,1068.0,-592.0,-1
8.73,-73.0,-216.0,-22.0,84.0,1037.0,-599.0,-1
8.7599,-73.0,-211.0,-17.0,40.0,997.0,-584.0,-1
8.7601,-74.0,-204.0,-15.0,13.0,951.0,-549.0,-1
8.7901,-76.0,-201.0,-15.0,-2.0,925.0,-511.0,-1
8.7904,-79.0,-201.0,-18.0,-23.0,925.0,-481.0,-1
8.8198,-79.0,-208.0,-26.0,-7.0,980.0,-476.0,-1
8.8201,-73.0,-222.0,-31.0,-12.0,1044.0,-486.0,-1
8.8501,-66.0,-230.0,-27.0,-33.0,1060.0,-503.0,-1
8.8505,-58.0,-228.0,-23.0,-73.0,1073.0,-515.0,-1
8.8803,-47.0,-216.0,-21.0,-88.0,1047.0,-493.0,-1
8.8806,-38.0,-203.0,-17.0,-87.0,1026.0,-438.0,-1
8.9099,-32.0,-194.0,-18.0,-99.0,1010.0,-360.0,-1
8.9103,-30.0,-193.0,-19.0,-94.0,986.0,-301.0,-1
8.9398,-35.0,-207.0,-17.0,-118.0,1006.0,-285.0,-1
8.9704,-44.0,-215.0,-19.0,-143.0,1039.0,-318.0,-1
8.9708,-49.0,-210.0,-21.0,-176.0,1079.0,-342.0,-1
8.9711,-49.0,-195.0,-22.0,-176.0,1104.0,-346.0,-1
9.0001,-40.0,-181.0,-24.0,-164.0,1107.0,-318.0,-1
9.0007,-29.0,-170.0,-26.0,-149.0,1098.0,-261.0,-1
9.0304,-22.0,-166.0,-27.0,-144.0,1097.0,-202.0,-1
9.0306,-18.0,-168.0,-25.0,-148.0,1096.0,-154.0,-1
9.0601,-23.0,-169.0,-20.0,-172.0,1097.0,-115.0,-1
9.0604,-32.0,-165.0,-18.0,-198.0,1087.0,-97.0,-1
9.0901,-39.0,-160.0,-21.0,-202.0,1074.0,-78.0,-1
9.1203,-43.0,-159.0,-23.0,-187.0,1084.0,-61.0,-1
9.1206,-42.0,-162.0,-26.0,-204.0,1106.0,-46.0,-1
9.121,-41.0,-164.0,-28.0,-201.0,1116.0,-43.0,-1
9.1503,-47.0,-165.0,-27.0,-203.0,1144.0,-36.0,-1
9.1504,-54.0,-160.0,-26.0,-193.0,1179.0,-27.0,-1
9.1805,-59.0,-158.0,-26.0,-160.0,1211.0,-24.0,-1
9.1806,-55.0,-163.0,-27.0,-134.0,1250.0,-34.0,-1
9.2102,-50.0,-169.0,-26.0,-95.0,1297.0,-55.0,-1
9.2106,-49.0,-168.0,-18.0,-57.0,1346.0,-67.0,-1
9.2398,-45.0,-163.0,-9.0,-20.0,1390.0,-70.0,-1
9.2403,-42.0,-161.0,1.0,71.0,1425.0,-71.0,-1
9.2695,-39.0,-161.0,20.0,106.0,1461.0,-64.0,-1
9.2702,-31.0,-161.0,38.0,100.0,1437.0,-74.0,-1
9.3002,-21.0,-157.0,50.0,90.0,1360.0,-72.0,-1
9.3005,-16.0,-147.0,58.0,86.0,1282.0,-60.0,-1
9.3301,-12.0,-140.0,64.0,96.0,1201.0,-41.0,-1
9.3902,-10.0,-139.0,67.0,98.0,1129.0,-39.0,-1
9.4805,-10.0,-135.0,69.0,115.0,1094.0,-33.0,-1
9.4807,-12.0,-128.0,70.0,112.0,1079.0,-28.0,-1
9.4813,-18.0,-121.0,74.0,128.0,1039.0,-23.0,-1
9.4822,-24.0,-112.0,76.0,130.0,1027.0,-17.0,-1
9.4825,-26.0,-109.0,77.0,143.0,999.0,-21.0,-1
9.4835,-17.0,-119.0,75.0,154.0,933.0,-63.0,-1
9.5103,-22.0,-115.0,67.0,163.0,833.0,-246.0,-1
9.5106,-22.0,-111.0,65.0,183.0,806.0,-287.0,-1
9.5402,-17.0,-116.0,64.0,184.0,759.0,-344.0,-1
9.5405,-8.0,-123.0,62.0,163.0,706.0,-406.0,-1
9.5703,0.0,-125.0,59.0,140.0,658.0,-468.0,-1
9.6305,8.0,-131.0,58.0,108.0,632.0,-527.0,-1
9.6309,18.0,-145.0,58.0,47.0,602.0,-593.0,-1
9.6312,36.0,-164.0,54.0,-98.0,554.0,-703.0,-1
9.6315,46.0,-168.0,43.0,-208.0,468.0,-808.0,-1
9.6323,47.0,-157.0,30.0,-321.0,405.0,-910.0,-1
9.6601,42.0,-128.0,9.0,-476.0,390.0,-1017.0,-1
9.6607,27.0,-77.0,-11.0,-596.0,366.0,-1128.0,-1
9.6902,18.0,-19.0,-30.0,-700.0,411.0,-1222.0,-1
9.6905,24.0,29.0,-48.0,-799.0,495.0,-1264.0,-1
9.7198,45.0,63.0,-67.0,-960.0,599.0,-1283.0,-1
9.7202,70.0,83.0,-88.0,-1159.0,679.0,-1315.0,-1
9.7496,72.0,116.0,-117.0,-1360.0,739.0,-1367.0,-1
9.7502,48.0,198.0,-154.0,-1507.0,882.0,-1441.0,-1
9.7796,27.0,293.0,-178.0,-1672.0,1198.0,-1457.0,-1
9.7802,46.0,360.0,-189.0,-1866.0,1644.0,-1533.0,-1
9.8095,123.0,379.0,-198.0,-2098.0,1937.0,-1814.0,-1
9.8102,216.0,381.0,-205.0,-2531.0,2138.0,-2266.0,-1
9.8394,275.0,453.0,-229.0,-3394.0,2429.0,-2865.0,-1
9.8402,294.0,655.0,-270.0,-4591.0,3022.0,-3621.0,-1
9.8696,323.0,1031.0,-313.0,-6136.0,4840.0,-3966.0,-1
9.8702,341.0,1248.0,-269.0,-6670.0,6319.0,-3535.0,-1
9.8996,323.0,1363.0,-139.0,-6739.0,6782.0,-2871.0,-1
9.9002,271.0,1381.0,-6.0,-6623.0,6524.0,-2281.0,-1
9.9295,254.0,1326.0,97.0,-6331.0,6100.0,-1739.0,-1
9.9303,248.0,1203.0,194.0,-5858.0,5409.0,-1314.0,-1
9.9596,254.0,1039.0,263.0,-5244.0,4552.0,-1077.0,-1
9.9601,264.0,884.0,293.0,-4545.0,3729.0,-905.0,-1
9.9895,256.0,758.0,304.0,-3865.0,2964.0,-754.0,-1
9.9903,222.0,662.0,301.0,-3264.0,2346.0,-589.0,-1
10.0194,173.0,584.0,291.0,-2771.0,1901.0,-438.0,-1
10.0203,130.0,518.0,263.0,-2399.0,1629.0,-319.0,-1
10.0502,112.0,469.0,214.0,-2049.0,1429.0,-238.0,-1
10.0507,110.0,433.0,174.0,-1692.0,1194.0,-156.0,-1
10.0801,111.0,403.0,148.0,-1430.0,1075.0,-48.0,-1
10.1102,111.0,377.0,130.0,-1189.0,959.0,65.0,-1
10.1107,103.0,345.0,120.0,-964.0,897.0,175.0,-1
10.111,96.0,308.0,119.0,-757.0,845.0,284.0,-1
10.1409,90.0,265.0,126.0,-584.0,767.0,366.0,-1
10.1703,84.0,216.0,137.0,-442.0,680.0,423.0,-1
10.1704,86.0,166.0,140.0,-372.0,640.0,452.0,-1
10.2003,96.0,126.0,132.0,-351.0,603.0,470.0,-1
10.2299,98.0,91.0,106.0,-250.0,473.0,560.0,-1
10.2896,76.0,82.0,74.0,-40.0,376.0,753.0,-1
10.29,46.0,61.0,65.0,147.0,366.0,847.0,-1
10.3198,59.0,15.0,62.0,196.0,478.0,837.0,-1
10.3805,62.0,-1.0,51.0,214.0,492.0,800.0,-1
10.3805,56.0,-2.0,41.0,221.0,535.0,768.0,-1
10.3807,51.0,0.0,28.0,255.0,565.0,741.0,-1
10.3815,47.0,2.0,18.0,287.0,601.0,716.0,-1
10.41,45.0,4.0,10.0,331.0,662.0,699.0,-1
10.4103,42.0,7.0,7.0,377.0,705.0,697.0,-1
10.4702,39.0,6.0,8.0,405.0,707.0,694.0,-1
10.4707,36.0,1.0,8.0,426.0,697.0,700.0,-1
10.471,36.0,-1.0,7.0,426.0,686.0,699.0,-1
10.5004,33.0,-4.0,6.0,424.0,677.0,704.0,-1
10.5304,20.0,-7.0,1.0,441.0,692.0,687.0,-1
10.5307,14.0,-8.0,0.0,452.0,713.0,672.0,-1
10.5598,12.0,-11.0,1.0,455.0,709.0,671.0,-1
10.5603,12.0,-15.0,1.0,452.0,720.0,660.0,-1
10.5893,13.0,-18.0,2.0,455.0,719.0,660.0,-1
10.59,14.0,-23.0,2.0,439.0,699.0,654.0,-1
10.6198,12.0,-27.0,1.0,414.0,695.0,646.0,-1
10.6497,7.0,-24.0,-1.0,404.0,700.0,639.0,-1
10.65,2.0,-22.0,0.0,402.0,677.0,644.0,-1
10.651,2.0,-25.0,-2.0,369.0,668.0,639.0,-1
10.6799,4.0,-29.0,-5.0,347.0,670.0,623.0,-1
10.6803,6.0,-33.0,-7.0,327.0,650.0,619.0,-1
10.7095,5.0,-37.0,-10.0,307.0,630.0,612.0,-1
10.7696,1.0,-41.0,-13.0,293.0,638.0,601.0,-1
10.7705,-3.0,-47.0,-13.0,295.0,639.0,577.0,-1
10.7993,0.0,-60.0,-13.0,290.0,644.0,547.0,-1
10.7997,7.0,-73.0,-15.0,297.0,606.0,525.0,-1
10.8003,6.0,-79.0,-18.0,278.0,592.0,504.0,-1
10.8008,0.0,-80.0,-25.0,291.0,573.0,488.0,-1
10.8017,-11.0,-78.0,-31.0,308.0,595.0,460.0,-1
10.83,-18.0,-78.0,-36.0,345.0,624.0,433.0,-1
10.8596,-18.0,-83.0,-39.0,396.0,634.0,412.0,-1
10.86,-12.0,-94.0,-38.0,422.0,653.0,390.0,-1
10.8607,2.0,-110.0,-35.0,444.0,622.0,366.0,-1
10.8896,6.0,-118.0,-36.0,419.0,623.0,344.0,-1
10.89,3.0,-120.0,-38.0,408.0,626.0,308.0,-1
10.9196,0.0,-121.0,-38.0,420.0,626.0,280.0,-1
10.9201,-1.0,-122.0,-39.0,449.0,610.0,272.0,-1
10.9496,-3.0,-127.0,-40.0,437.0,611.0,261.0,-1
10.9503,-7.0,-134.0,-44.0,427.0,635.0,251.0,-1
10.9795,-14.0,-139.0,-47.0,402.0,656.0,234.0,-1
10.98,-16.0,-145.0,-47.0,380.0,682.0,212.0,-1
11.0096,-7.0,-156.0,-46.0,426.0,645.0,206.0,-1
11.0102,4.0,-165.0,-49.0,425.0,616.0,210.0,-1
11.0397,6.0,-172.0,-58.0,408.0,642.0,194.0,-1
11.0403,-2.0,-172.0,-66.0,408.0,687.0,182.0,-1
11.0697,-25.0,-165.0,-66.0,414.0,731.0,150.0,-1
11.0707,-38.0,-164.0,-67.0,443.0,811.0,116.0,-1
11.0996,-26.0,-182.0,-63.0,498.0,911.0,95.0,-1
11.1001,0.0,-207.0,-57.0,477.0,928.0,65.0,-1
11.1299,20.0,-225.0,-52.0,445.0,890.0,12.0,-1
11.1301,20.0,-226.0,-55.0,388.0,844.0,-31.0,-1
11.1601,4.0,-210.0,-59.0,338.0,788.0,-46.0,-1
11.1605,-21.0,-194.0,-65.0,357.0,787.0,-48.0,-1
11.1901,-38.0,-194.0,-73.0,412.0,860.0,-65.0,-1
11.1905,-36.0,-210.0,-78.0,432.0,930.0,-114.0,-1
11.2196,-25.0,-225.0,-82.0,410.0,1000.0,-178.0,-1
11.2201,-17.0,-226.0,-79.0,377.0,989.0,-222.0,-1
11.2499,-18.0,-215.0,-75.0,342.0,986.0,-216.0,-1
11.2501,-34.0,-198.0,-76.0,331.0,951.0,-196.0,-1
11.2796,-52.0,-185.0,-74.0,324.0,930.0,-173.0,-1
11.2804,-60.0,-186.0,-78.0,342.0,980.0,-156.0,-1
11.3099,-53.0,-204.0,-82.0,348.0,1028.0,-147.0,-1
11.3106,-42.0,-228.0,-81.0,320.0,1067.0,-171.0,-1
11.3399,-44.0,-240.0,-79.0,289.0,1124.0,-213.0,-1
11.3401,-47.0,-242.0,-71.0,235.0,1161.0,-280.0,-1
11.3696,-47.0,-230.0,-67.0,168.0,1175.0,-321.0,-1
11.4,-47.0,-223.0,-60.0,172.0,1171.0,-303.0,-1
11.4001,-53.0,-226.0,-49.0,183.0,1178.0,-291.0,-1
11.4007,-52.0,-239.0,-41.0,171.0,1197.0,-301.0,-1
11.4307,-41.0,-261.0,-37.0,149.0,1206.0,-362.0,-1
11.4309,-27.0,-271.0,-34.0,69.0,1236.0,-422.0,-1
11.4599,-18.0,-267.0,-26.0,8.0,1224.0,-459.0,-1
11.4606,-21.0,-249.0,-16.0,-22.0,1194.0,-459.0,-1
11.4896,-25.0,-230.0,-10.0,-77.0,1141.0,-441.0,-1
11.49,-30.0,-212.0,-7.0,-99.0,1066.0,-399.0,-1
11.5196,-39.0,-199.0,-5.0,-156.0,996.0,-355.0,-1
11.5201,-48.0,-194.0,-10.0,-180.0,955.0,-327.0,-1
11.5499,-46.0,-198.0,-18.0,-196.0,956.0,-322.0,-1
11.5502,-35.0,-208.0,-26.0,-213.0,979.0,-314.0,-1
11.5799,-23.0,-214.0,-28.0,-243.0,1003.0,-300.0,-1
11.5805,-17.0,-216.0,-24.0,-264.0,988.0,-291.0,-1
11.6097,-14.0,-217.0,-21.0,-314.0,997.0,-277.0,-1
11.6103,-12.0,-217.0,-18.0,-333.0,1007.0,-257.0,-1
11.6526,-16.0,-215.0,-16.0,-355.0,1000.0,-239.0,-1
11.6528,-15.0,-217.0,-20.0,-382.0,1016.0,-236.0,-1
11.6696,-12.0,-218.0,-24.0,-372.0,1013.0,-240.0,-1
11.678,-13.0,-219.0,-25.0,-379.0,1027.0,-239.0,-1
11.7002,-18.0,-216.0,-22.0,-373.0,1050.0,-246.0,-1
11.7004,-21.0,-210.0,-19.0,-368.0,1074.0,-243.0,-1
11.7298,-20.0,-201.0,-19.0,-361.0,1100.0,-229.0,-1
11.7305,-17.0,-194.0,-18.0,-335.0,1112.0,-204.0,-1
11.7597,-13.0,-193.0,-15.0,-313.0,1120.0,-166.0,-1
11.7601,-10.0,-202.0,-7.0,-281.0,1115.0,-138.0,-1
11.7896,-6.0,-211.0,-3.0,-279.0,1134.0,-136.0,-1
11.7901,-4.0,-217.0,0.0,-261.0,1152.0,-145.0,-1
11.8195,0.0,-218.0,4.0,-255.0,1171.0,-152.0,-1
11.8201,4.0,-219.0,10.0,-246.0,1149.0,-156.0,-1
11.8496,11.0,-220.0,15.0,-258.0,1127.0,-167.0,-1
11.88,18.0,-218.0,18.0,-264.0,1071.0,-178.0,-1
11.9098,18.0,-212.0,19.0,-277.0,1028.0,-185.0,-1
11.91,13.0,-199.0,19.0,-296.0,1008.0,-186.0,-1
11.9107,6.0,-184.0,17.0,-302.0,990.0,-183.0,-1
11.9116,0.0,-173.0,14.0,-296.0,972.0,-177.0,-1
11.9396,-4.0,-166.0,12.0,-293.0,975.0,-177.0,-1
11.9401,-4.0,-157.0,8.0,-288.0,988.0,-168.0,-1
11.9696,-6.0,-150.0,7.0,-272.0,968.0,-160.0,-1
11.9701,-10.0,-145.0,7.0,-271.0,960.0,-145.0,-1
11.9999,-13.0,-143.0,7.0,-277.0,951.0,-151.0,-1
12.0299,-13.0,-142.0,4.0,-276.0,919.0,-164.0,-1
12.0301,-12.0,-139.0,-1.0,-287.0,926.0,-175.0,-1
12.0307,-10.0,-132.0,-7.0,-278.0,921.0,-179.0,-1
12.0598,-13.0,-121.0,-9.0,-262.0,924.0,-165.0,-1
12.0605,-15.0,-112.0,-10.0,-244.0,945.0,-145.0,-1
12.1269,-13.0,-111.0,-12.0,-227.0,954.0,-131.0,-1
12.127,-12.0,-111.0,-12.0,-215.0,961.0,-121.0,-1
12.127,-11.0,-109.0,-12.0,-211.0,969.0,-113.0,-1
12.1272,-11.0,-104.0,-13.0,-197.0,949.0,-111.0,-1
12.1497,-12.0,-98.0,-14.0,-177.0,940.0,-103.0,-1
12.1587,-10.0,-92.0,-17.0,-154.0,947.0,-84.0,-1
12.1903,-8.0,-85.0,-18.0,-129.0,955.0,-59.0,-1
12.1904,-10.0,-76.0,-19.0,-99.0,972.0,-24.0,-1
12.2097,-13.0,-68.0,-18.0,-67.0,994.0,6.0,-1
12.21,-12.0,-62.0,-18.0,-28.0,1005.0,48.0,-1
12.2397,-11.0,-60.0,-19.0,-8.0,1030.0,72.0,-1
12.2402,-11.0,-60.0,-17.0,15.0,1028.0,93.0,-1
12.2696,-15.0,-59.0,-14.0,32.0,1024.0,103.0,-1
12.27,-20.0,-57.0,-13.0,38.0,1038.0,108.0,-1
12.3001,-21.0,-58.0,-11.0,53.0,1039.0,106.0,-1
12.3004,-21.0,-61.0,-8.0,70.0,1043.0,104.0,-1
12.33,-18.0,-68.0,-5.0,72.0,1058.0,90.0,-1
12.3598,-13.0,-74.0,-4.0,63.0,1067.0,59.0,-1
12.36,-10.0,-73.0,-1.0,71.0,1077.0,42.0,-1
12.3607,-9.0,-72.0,2.0,90.0,1092.0,31.0,-1
12.4198,-6.0,-70.0,7.0,103.0,1100.0,20.0,-1
12.4199,-2.0,-70.0,12.0,119.0,1088.0,6.0,-1
12.4203,3.0,-71.0,15.0,121.0,1085.0,-12.0,-1
12.4212,7.0,-70.0,17.0,119.0,1080.0,-24.0,-1
12.4495,7.0,-63.0,21.0,115.0,1091.0,-33.0,-1
12.45,10.0,-59.0,26.0,125.0,1091.0,-32.0,-1
12.4799,16.0,-58.0,31.0,131.0,1089.0,-24.0,-1
12.4801,22.0,-58.0,36.0,130.0,1072.0,-18.0,-1
12.5101,25.0,-58.0,41.0,118.0,1043.0,-16.0,-1
12.5105,25.0,-56.0,43.0,102.0,1027.0,-17.0,-1
12.5398,24.0,-51.0,44.0,87.0,1024.0,-19.0,-1
12.5402,21.0,-43.0,45.0,95.0,1009.0,-20.0,-1
12.57,20.0,-39.0,46.0,100.0,1014.0,-19.0,-1
12.6001,19.0,-34.0,47.0,111.0,1008.0,-20.0,-1
12.6006,19.0,-32.0,47.0,120.0,1009.0,-30.0,-1
12.6013,19.0,-30.0,47.0,119.0,1015.0,-46.0,-1
12.6305,21.0,-27.0,47.0,126.0,1003.0,-59.0,-1
12.6309,22.0,-20.0,47.0,125.0,995.0,-62.0,-1
12.6601,21.0,-11.0,46.0,133.0,983.0,-52.0,-1
12.6607,16.0,-2.0,45.0,154.0,973.0,-40.0,-1
12.6901,12.0,5.0,44.0,169.0,984.0,-18.0,-1
12.6907,10.0,8.0,45.0,191.0,974.0,-2.0,-1
12.7198,9.0,6.0,45.0,203.0,945.0,-6.0,-1
12.7205,11.0,4.0,43.0,200.0,921.0,-16.0,-1
12.7501,12.0,2.0,40.0,204.0,886.0,-33.0,-1
12.7504,11.0,3.0,39.0,212.0,862.0,-49.0,-1
12.7796,8.0,2.0,38.0,209.0,842.0,-71.0,-1
12.7803,4.0,0.0,38.0,222.0,826.0,-108.0,-1
12.8095,6.0,-10.0,37.0,227.0,830.0,-140.0,-1
12.8103,12.0,-27.0,40.0,224.0,827.0,-183.0,-1
12.8397,19.0,-50.0,45.0,172.0,797.0,-236.0,-1
12.87,25.0,-73.0,48.0,107.0,733.0,-314.0,-1
12.8702,32.0,-90.0,46.0,32.0,672.0,-394.0,-1
12.8709,34.0,-101.0,42.0,-41.0,634.0,-475.0,-1
12.9,33.0,-109.0,39.0,-139.0,611.0,-556.0,-1
12.93,34.0,-114.0,32.0,-232.0,592.0,-648.0,-1
12.9302,38.0,-112.0,24.0,-349.0,562.0,-746.0,-1
12.9308,43.0,-102.0,13.0,-506.0,556.0,-834.0,-1
12.9597,49.0,-81.0,-4.0,-651.0,534.0,-922.0,-1
12.9895,57.0,-52.0,-25.0,-806.0,581.0,-987.0,-1
12.99,69.0,-21.0,-47.0,-995.0,674.0,-1038.0,-1
13.0196,87.0,3.0,-74.0,-1162.0,787.0,-1083.0,-1
13.0201,106.0,33.0,-107.0,-1347.0,888.0,-1132.0,-1
13.0496,111.0,84.0,-141.0,-1500.0,961.0,-1213.0,-1
13.0798,92.0,221.0,-187.0,-1866.0,1234.0,-1377.0,-1
13.1095,43.0,410.0,-179.0,-2999.0,1601.0,-2157.0,-1
13.1402,58.0,811.0,-257.0,-4680.0,2747.0,-3401.0,-1
13.1703,264.0,1142.0,-238.0,-5470.0,5482.0,-2778.0,-1
13.2004,340.0,1134.0,-29.0,-5158.0,5792.0,-1659.0,-1
13.2297,253.0,1000.0,120.0,-4589.0,4832.0,-1090.0,-1
13.23,227.0,922.0,183.0,-4389.0,4351.0,-938.0,-1
13.2595,230.0,833.0,219.0,-3986.0,3759.0,-793.0,-1
13.2896,223.0,655.0,236.0,-3089.0,2604.0,-501.0,-1
13.2903,187.0,588.0,229.0,-2675.0,2180.0,-385.0,-1
13.3196,153.0,542.0,220.0,-2342.0,1839.0,-292.0,-1
13.3203,139.0,507.0,211.0,-2034.0,1540.0,-188.0,-1
13.3497,138.0,470.0,198.0,-1757.0,1296.0,-96.0,-1
13.3501,146.0,420.0,173.0,-1464.0,1122.0,-8.0,-1
13.3797,155.0,368.0,150.0,-1241.0,968.0,49.0,-1
13.4098,146.0,329.0,132.0,-1057.0,840.0,98.0,-1
13.4103,122.0,303.0,120.0,-913.0,740.0,132.0,-1
13.4111,98.0,283.0,114.0,-781.0,693.0,170.0,-1
13.4403,86.0,261.0,109.0,-646.0,667.0,213.0,-1
13.4411,85.0,233.0,106.0,-520.0,656.0,255.0,-1
13.4705,89.0,202.0,106.0,-422.0,634.0,293.0,-1
13.4708,96.0,177.0,107.0,-358.0,607.0,327.0,-1
13.4998,107.0,156.0,106.0,-298.0,582.0,366.0,-1
13.5002,119.0,139.0,100.0,-238.0,556.0,409.0,-1
13.5592,127.0,129.0,93.0,-179.0,529.0,466.0,-1
13.5599,126.0,128.0,85.0,-129.0,488.0,515.0,-1
13.5605,118.0,130.0,74.0,-64.0,473.0,581.0,-1
13.5614,111.0,128.0,64.0,18.0,462.0,656.0,-1
13.5893,108.0,119.0,55.0,91.0,461.0,729.0,-1
13.5901,103.0,103.0,45.0,150.0,478.0,791.0,-1
13.62,96.0,85.0,37.0,204.0,486.0,832.0,-1
13.6205,85.0,68.0,30.0,235.0,506.0,851.0,-1
13.6802,74.0,54.0,23.0,237.0,525.0,841.0,-1
13.7105,65.0,38.0,9.0,218.0,588.0,819.0,-1
13.711,61.0,32.0,2.0,221.0,633.0,799.0,-1
13.7113,56.0,29.0,0.0,223.0,677.0,798.0,-1
13.7118,51.0,27.0,1.0,226.0,701.0,810.0,-1
13.7123,48.0,20.0,1.0,254.0,717.0,826.0,-1
13.74,44.0,11.0,1.0,269.0,707.0,826.0,-1
13.7702,38.0,2.0,0.0,260.0,719.0,805.0,-1
13.7707,36.0,-2.0,-4.0,250.0,731.0,778.0,-1
13.771,33.0,-6.0,-7.0,255.0,728.0,753.0,-1
13.8007,30.0,-12.0,-8.0,251.0,727.0,732.0,-1
13.8008,27.0,-22.0,-9.0,269.0,713.0,703.0,-1
13.8308,21.0,-32.0,-11.0,263.0,707.0,657.0,-1
13.8309,13.0,-41.0,-12.0,243.0,715.0,590.0,-1
13.8605,14.0,-48.0,-11.0,209.0,733.0,553.0,-1
13.8606,22.0,-56.0,-12.0,178.0,723.0,525.0,-1
13.8902,30.0,-61.0,-13.0,155.0,683.0,515.0,-1
13.8905,33.0,-63.0,-15.0,138.0,658.0,512.0,-1
13.9499,32.0,-68.0,-18.0,121.0,633.0,523.0,-1
13.9502,25.0,-75.0,-20.0,125.0,629.0,531.0,-1
13.9508,20.0,-88.0,-23.0,118.0,643.0,520.0,-1
13.9514,21.0,-106.0,-24.0,108.0,671.0,494.0,-1
13.98,28.0,-125.0,-25.0,101.0,675.0,470.0,-1
14.0099,38.0,-147.0,-32.0,80.0,653.0,440.0,-1
14.0102,29.0,-158.0,-42.0,78.0,656.0,408.0,-1
14.0108,11.0,-162.0,-51.0,76.0,682.0,376.0,-1
14.0401,-8.0,-163.0,-62.0,103.0,709.0,333.0,-1
14.0408,-23.0,-166.0,-72.0,111.0,755.0,294.0,-1
14.0698,-29.0,-170.0,-77.0,157.0,800.0,276.0,-1
14.0702,-25.0,-178.0,-81.0,179.0,841.0,255.0,-1
14.0997,-17.0,-189.0,-85.0,209.0,866.0,229.0,-1
14.1003,-12.0,-199.0,-94.0,219.0,887.0,179.0,-1
14.1302,-19.0,-198.0,-101.0,193.0,881.0,127.0,-1
14.1304,-32.0,-189.0,-106.0,217.0,943.0,87.0,-1
14.1604,-36.0,-189.0,-111.0,229.0,1020.0,70.0,-1
14.1607,-29.0,-199.0,-114.0,280.0,1077.0,58.0,-1
14.1901,-31.0,-205.0,-114.0,341.0,1103.0,21.0,-1
14.1909,-39.0,-206.0,-109.0,315.0,1123.0,-14.0,-1
14.2201,-44.0,-200.0,-108.0,264.0,1138.0,-18.0,-1
14.2205,-45.0,-193.0,-111.0,244.0,1150.0,-2.0,-1
14.2502,-40.0,-194.0,-109.0,251.0,1188.0,42.0,-1
14.2504,-40.0,-205.0,-106.0,270.0,1237.0,68.0,-1
14.2797,-40.0,-220.0,-98.0,244.0,1261.0,80.0,-1
14.2801,-50.0,-226.0,-87.0,215.0,1236.0,36.0,-1
14.3099,-60.0,-230.0,-80.0,160.0,1223.0,0.0,-1
14.3106,-56.0,-235.0,-77.0,152.0,1228.0,-55.0,-1
14.3406,-44.0,-247.0,-77.0,143.0,1233.0,-89.0,-1
14.341,-35.0,-255.0,-74.0,101.0,1215.0,-101.0,-1
14.37,-38.0,-255.0,-69.0,83.0,1214.0,-108.0,-1
14.3702,-51.0,-250.0,-63.0,63.0,1201.0,-105.0,-1
14.4024,-64.0,-248.0,-58.0,34.0,1188.0,-91.0,-1
14.4027,-75.0,-250.0,-56.0,18.0,1167.0,-84.0,-1
14.4303,-78.0,-260.0,-55.0,17.0,1159.0,-99.0,-1
14.4306,-69.0,-280.0,-51.0,-12.0,1152.0,-126.0,-1
14.4607,-56.0,-303.0,-48.0,-58.0,1111.0,-160.0,-1
14.4608,-51.0,-320.0,-46.0,-103.0,1097.0,-222.0,-1
14.4898,-55.0,-328.0,-43.0,-154.0,1095.0,-285.0,-1
14.4906,-62.0,-325.0,-38.0,-174.0,1078.0,-334.0,-1
14.5201,-67.0,-321.0,-33.0,-183.0,1055.0,-359.0,-1
14.5204,-65.0,-323.0,-32.0,-188.0,1032.0,-381.0,-1
14.5502,-59.0,-324.0,-34.0,-207.0,1040.0,-430.0,-1
14.5507,-49.0,-320.0,-36.0,-228.0,1024.0,-463.0,-1
14.5804,-41.0,-314.0,-37.0,-231.0,976.0,-467.0,-1
14.5807,-36.0,-302.0,-46.0,-260.0,930.0,-461.0,-1
14.61,-33.0,-292.0,-54.0,-241.0,929.0,-455.0,-1
14.6103,-24.0,-289.0,-66.0,-229.0,971.0,-445.0,-1
14.6395,-7.0,-296.0,-71.0,-209.0,998.0,-426.0,-1
14.6405,0.0,-301.0,-71.0,-215.0,995.0,-420.0,-1
14.6697,9.0,-302.0,-72.0,-268.0,1016.0,-417.0,-1
14.6704,11.0,-287.0,-72.0,-285.0,1020.0,-412.0,-1
14.6996,9.0,-271.0,-72.0,-298.0,1019.0,-403.0,-1
14.7002,1.0,-252.0,-74.0,-311.0,1033.0,-389.0,-1
14.7298,-12.0,-231.0,-74.0,-323.0,1054.0,-380.0,-1
14.7303,-25.0,-211.0,-73.0,-344.0,1065.0,-377.0,-1
14.7598,-39.0,-188.0,-73.0,-363.0,1065.0,-365.0,-1
14.7603,-47.0,-168.0,-76.0,-379.0,1082.0,-354.0,-1
14.7897,-48.0,-151.0,-82.0,-388.0,1096.0,-331.0,-1
14.7905,-45.0,-137.0,-86.0,-377.0,1120.0,-293.0,-1
14.8201,-39.0,-132.0,-88.0,-366.0,1140.0,-256.0,-1
14.8204,-31.0,-133.0,-89.0,-369.0,1145.0,-234.0,-1
14.8504,-21.0,-140.0,-90.0,-379.0,1142.0,-217.0,-1
14.8508,-15.0,-146.0,-89.0,-370.0,1138.0,-217.0,-1
14.8802,-13.0,-145.0,-83.0,-377.0,1167.0,-213.0,-1
14.8806,-9.0,-141.0,-77.0,-365.0,1171.0,-212.0,-1
14.9103,-2.0,-142.0,-70.0,-340.0,1147.0,-207.0,-1
14.9103,9.0,-148.0,-65.0,-345.0,1122.0,-207.0,-1
14.94,17.0,-146.0,-63.0,-338.0,1102.0,-202.0,-1
14.9404,22.0,-139.0,-60.0,-334.0,1110.0,-181.0,-1
14.9704,26.0,-135.0,-55.0,-316.0,1082.0,-155.0,-1
14.9707,24.0,-133.0,-46.0,-309.0,1070.0,-137.0,-1
15.0003,22.0,-129.0,-42.0,-297.0,1072.0,-122.0,-1
15.0006,22.0,-123.0,-40.0,-283.0,1077.0,-110.0,-1
15.0304,22.0,-119.0,-36.0,-268.0,1097.0,-84.0,-1
15.0307,27.0,-116.0,-32.0,-245.0,1114.0,-64.0,-1
15.0601,33.0,-115.0,-28.0,-210.0,1120.0,-37.0,-1
15.0604,39.0,-115.0,-23.0,-186.0,1155.0,-3.0,-1
15.0902,43.0,-115.0,-15.0,-162.0,1161.0,32.0,-1
15.0905,44.0,-118.0,-7.0,-144.0,1150.0,55.0,-1
15.1204,45.0,-120.0,-2.0,-145.0,1156.0,69.0,-1
15.1208,44.0,-119.0,0.0,-135.0,1156.0,82.0,-1
15.1503,37.0,-112.0,10.0,-121.0,1179.0,114.0,-1
15.1507,28.0,-104.0,19.0,-101.0,1188.0,132.0,-1
15.1802,23.0,-98.0,27.0,-90.0,1231.0,165.0,-1
15.1805,23.0,-97.0,35.0,-69.0,1257.0,204.0,-1
15.241,26.0,-103.0,43.0,-60.0,1266.0,237.0,-1
15.2697,30.0,-115.0,51.0,-45.0,1240.0,257.0,-1
15.2699,30.0,-123.0,58.0,-60.0,1244.0,267.0,-1
15.2704,25.0,-127.0,64.0,-69.0,1209.0,268.0,-1
15.271,14.0,-128.0,70.0,-85.0,1187.0,250.0,-1
15.2719,5.0,-126.0,72.0,-110.0,1178.0,233.0,-1
15.2997,1.0,-126.0,74.0,-110.0,1151.0,211.0,-1
15.3002,-4.0,-124.0,77.0,-127.0,1144.0,178.0,-1
15.3295,-6.0,-124.0,76.0,-136.0,1133.0,154.0,-1
15.3302,-10.0,-118.0,76.0,-131.0,1120.0,144.0,-1
15.3602,-18.0,-107.0,76.0,-106.0,1124.0,147.0,-1
15.3603,-21.0,-102.0,77.0,-62.0,1140.0,160.0,-1
15.3904,-15.0,-107.0,79.0,-34.0,1140.0,176.0,-1
15.3907,-9.0,-117.0,82.0,-16.0,1110.0,179.0,-1
15.42,-8.0,-126.0,86.0,-7.0,1048.0,155.0,-1
15.4203,-10.0,-128.0,85.0,-5.0,1015.0,121.0,-1
15.4502,-11.0,-134.0,85.0,13.0,972.0,78.0,-1
15.4503,-11.0,-142.0,85.0,5.0,956.0,28.0,-1
15.5107,-12.0,-149.0,86.0,1.0,917.0,-38.0,-1
15.5108,-17.0,-153.0,84.0,-18.0,868.0,-103.0,-1
15.5108,-25.0,-156.0,83.0,-27.0,836.0,-178.0,-1
15.5117,-33.0,-159.0,82.0,-25.0,801.0,-256.0,-1
15.5402,-31.0,-162.0,82.0,-58.0,787.0,-338.0,-1
15.5405,-21.0,-167.0,83.0,-105.0,720.0,-432.0,-1
15.5704,-9.0,-168.0,84.0,-145.0,646.0,-526.0,-1
15.5708,4.0,-170.0,85.0,-223.0,593.0,-604.0,-1
15.63,19.0,-173.0,88.0,-316.0,492.0,-693.0,-1
15.6302,32.0,-170.0,84.0,-465.0,409.0,-780.0,-1
15.6306,42.0,-149.0,68.0,-590.0,331.0,-865.0,-1
15.6315,45.0,-115.0,42.0,-669.0,273.0,-939.0,-1
15.6604,47.0,-76.0,16.0,-747.0,269.0,-1007.0,-1
15.7205,49.0,-21.0,-12.0,-883.0,291.0,-1071.0,-1
15.7207,65.0,57.0,-58.0,-1073.0,452.0,-1101.0,-1
15.7211,81.0,87.0,-80.0,-1189.0,554.0,-1086.0,-1
15.7217,97.0,107.0,-102.0,-1382.0,696.0,-1084.0,-1
15.75,105.0,120.0,-129.0,-1617.0,816.0,-1122.0,-1
15.7803,93.0,159.0,-165.0,-1870.0,947.0,-1216.0,-1
15.7805,77.0,238.0,-210.0,-2136.0,1197.0,-1316.0,-1
15.781,75.0,346.0,-264.0,-2343.0,1534.0,-1428.0,-1
15.81,91.0,450.0,-296.0,-2472.0,1963.0,-1438.0,-1
15.8399,123.0,518.0,-287.0,-2740.0,2562.0,-1430.0,-1
15.8701,176.0,564.0,-271.0,-3164.0,3072.0,-1575.0,-1
15.8701,214.0,638.0,-267.0,-3677.0,3421.0,-1759.0,-1
15.871,214.0,757.0,-265.0,-4189.0,3791.0,-1905.0,-1
15.901,210.0,903.0,-265.0,-4757.0,4445.0,-1835.0,-1
15.93,168.0,1114.0,-137.0,-5019.0,5227.0,-1122.0,-1
15.9647,149.0,1064.0,89.0,-4550.0,4668.0,-528.0,-1
15.9967,245.0,852.0,194.0,-3783.0,3557.0,-193.0,-1
16.028,290.0,667.0,216.0,-2989.0,2465.0,-19.0,-1
16.0801,250.0,559.0,202.0,-2314.0,1634.0,123.0,-1
16.0804,204.0,518.0,190.0,-1965.0,1356.0,183.0,-1
16.0807,166.0,473.0,175.0,-1646.0,1144.0,232.0,-1
16.0816,142.0,424.0,152.0,-1379.0,989.0,256.0,-1
16.1096,127.0,377.0,126.0,-1096.0,832.0,268.0,-1
16.1403,99.0,303.0,95.0,-712.0,716.0,299.0,-1
16.1705,96.0,264.0,88.0,-523.0,672.0,335.0,-1
16.1711,98.0,230.0,88.0,-391.0,619.0,381.0,-1
16.1716,98.0,207.0,87.0,-312.0,592.0,397.0,-1
16.2004,94.0,177.0,80.0,-234.0,563.0,420.0,-1
16.2005,89.0,156.0,72.0,-142.0,512.0,426.0,-1
16.2299,90.0,135.0,65.0,-48.0,481.0,442.0,-1
16.2304,94.0,116.0,59.0,15.0,454.0,458.0,-1
16.2608,98.0,98.0,52.0,103.0,430.0,476.0,-1
16.2611,95.0,81.0,42.0,174.0,397.0,486.0,-1
16.2902,87.0,70.0,37.0,239.0,396.0,496.0,-1
16.2902,81.0,61.0,34.0,288.0,384.0,507.0,-1
16.3203,82.0,52.0,31.0,341.0,388.0,524.0,-1
16.3206,89.0,39.0,24.0,377.0,368.0,533.0,-1
16.3505,92.0,27.0,15.0,374.0,384.0,543.0,-1
16.3508,85.0,25.0,6.0,386.0,421.0,553.0,-1
16.38,67.0,28.0,0.0,381.0,446.0,557.0,-1
16.3807,60.0,22.0,-5.0,382.0,511.0,556.0,-1
16.4105,64.0,7.0,-12.0,395.0,546.0,556.0,-1
16.4106,70.0,-9.0,-15.0,379.0,559.0,542.0,-1
16.4404,67.0,-19.0,-20.0,357.0,564.0,526.0,-1
16.4408,57.0,-25.0,-26.0,329.0,565.0,498.0,-1
16.4704,41.0,-29.0,-36.0,340.0,632.0,460.0,-1
16.4705,27.0,-36.0,-41.0,365.0,690.0,416.0,-1
16.5001,24.0,-48.0,-43.0,378.0,727.0,380.0,-1
16.5004,27.0,-61.0,-45.0,407.0,736.0,349.0,-1
16.5305,29.0,-69.0,-45.0,382.0,733.0,313.0,-1
16.531,26.0,-72.0,-49.0,385.0,729.0,291.0,-1
16.5602,13.0,-68.0,-55.0,436.0,729.0,276.0,-1
16.5605,-1.0,-62.0,-61.0,489.0,797.0,259.0,-1
16.5899,-3.0,-62.0,-64.0,555.0,880.0,261.0,-1
16.5905,5.0,-68.0,-62.0,589.0,932.0,268.0,-1
16.6196,13.0,-72.0,-56.0,569.0,930.0,275.0,-1
16.6201,15.0,-71.0,-52.0,554.0,899.0,291.0,-1
16.6496,14.0,-72.0,-51.0,536.0,906.0,325.0,-1
16.6503,13.0,-76.0,-52.0,546.0,937.0,342.0,-1
16.6801,17.0,-87.0,-48.0,521.0,977.0,351.0,-1
16.6805,22.0,-98.0,-43.0,468.0,972.0,362.0,-1
16.7102,21.0,-106.0,-40.0,398.0,935.0,384.0,-1
16.7104,10.0,-111.0,-38.0,297.0,879.0,401.0,-1
16.74,-3.0,-113.0,-41.0,291.0,884.0,415.0,-1
16.7403,-14.0,-128.0,-47.0,298.0,904.0,417.0,-1
16.7761,-20.0,-149.0,-52.0,273.0,916.0,389.0,-1
16.7762,-28.0,-165.0,-56.0,240.0,937.0,334.0,-1
16.8078,-39.0,-177.0,-59.0,214.0,941.0,287.0,-1
16.8234,-52.0,-182.0,-62.0,177.0,951.0,223.0,-1
16.8392,-69.0,-180.0,-70.0,167.0,964.0,172.0,-1
16.8394,-87.0,-174.0,-77.0,132.0,951.0,136.0,-1
16.8595,-103.0,-166.0,-84.0,142.0,967.0,97.0,-1
16.86,-104.0,-168.0,-89.0,145.0,1003.0,90.0,-1
16.8903,-94.0,-189.0,-97.0,170.0,1060.0,69.0,-1
16.8905,-90.0,-214.0,-97.0,175.0,1108.0,28.0,-1
16.9206,-91.0,-225.0,-93.0,168.0,1119.0,-13.0,-1
16.921,-92.0,-236.0,-87.0,144.0,1145.0,-83.0,-1
16.9504,-92.0,-241.0,-80.0,128.0,1164.0,-147.0,-1
16.9508,-87.0,-242.0,-72.0,102.0,1159.0,-209.0,-1
16.98,-78.0,-244.0,-71.0,92.0,1150.0,-239.0,-1
16.9807,-68.0,-249.0,-71.0,88.0,1112.0,-279.0,-1
17.0105,-59.0,-252.0,-72.0,69.0,1089.0,-325.0,-1
17.0109,-52.0,-251.0,-72.0,48.0,1068.0,-359.0,-1
17.0406,-52.0,-245.0,-73.0,40.0,1053.0,-378.0,-1
17.0406,-50.0,-244.0,-73.0,67.0,1067.0,-403.0,-1
17.0702,-43.0,-250.0,-71.0,64.0,1056.0,-419.0,-1
17.0705,-40.0,-253.0,-68.0,51.0,1063.0,-456.0,-1
17.1004,-34.0,-257.0,-67.0,54.0,1034.0,-478.0,-1
17.1005,-30.0,-260.0,-66.0,27.0,1023.0,-541.0,-1
17.1302,-26.0,-251.0,-70.0,-1.0,1040.0,-583.0,-1
17.1304,-23.0,-233.0,-72.0,-16.0,1034.0,-568.0,-1
17.16,-30.0,-215.0,-67.0,13.0,996.0,-540.0,-1
17.1605,-40.0,-204.0,-63.0,5.0,969.0,-504.0,-1
17.1895,-40.0,-202.0,-65.0,17.0,975.0,-480.0,-1
17.1902,-30.0,-218.0,-71.0,38.0,983.0,-455.0,-1
17.2207,-15.0,-241.0,-74.0,12.0,986.0,-433.0,-1
17.2207,-1.0,-263.0,-74.0,-52.0,985.0,-411.0,-1
17.2505,3.0,-277.0,-76.0,-118.0,968.0,-406.0,-1
17.2511,0.0,-278.0,-73.0,-170.0,981.0,-403.0,-1
17.2797,-11.0,-267.0,-70.0,-205.0,983.0,-402.0,-1
17.2801,-19.0,-253.0,-69.0,-220.0,979.0,-399.0,-1
17.3108,-20.0,-245.0,-71.0,-238.0,1012.0,-383.0,-1
17.3108,-13.0,-241.0,-76.0,-274.0,1024.0,-368.0,-1
17.3405,-9.0,-234.0,-77.0,-308.0,1080.0,-344.0,-1
17.3408,-6.0,-223.0,-75.0,-315.0,1122.0,-321.0,-1
17.3706,-1.0,-214.0,-73.0,-302.0,1147.0,-289.0,-1
17.3709,8.0,-208.0,-72.0,-291.0,1181.0,-244.0,-1
17.4004,22.0,-205.0,-72.0,-276.0,1176.0,-192.0,-1
17.4006,29.0,-202.0,-69.0,-264.0,1171.0,-142.0,-1
17.4298,25.0,-202.0,-64.0,-249.0,1182.0,-104.0,-1
17.43,19.0,-201.0,-59.0,-237.0,1201.0,-87.0,-1
17.4603,15.0,-203.0,-55.0,-220.0,1227.0,-70.0,-1
17.4603,11.0,-199.0,-49.0,-206.0,1261.0,-56.0,-1
17.4901,8.0,-189.0,-44.0,-185.0,1330.0,-16.0,-1
17.4904,5.0,-177.0,-32.0,-116.0,1384.0,30.0,-1
17.5201,8.0,-182.0,-16.0,-77.0,1404.0,71.0,-1
17.5203,18.0,-195.0,-4.0,-74.0,1366.0,90.0,-1
17.5504,20.0,-205.0,5.0,-81.0,1288.0,78.0,-1
17.5807,15.0,-204.0,13.0,-106.0,1264.0,57.0,-1
17.581,11.0,-195.0,18.0,-115.0,1276.0,54.0,-1
17.5814,7.0,-187.0,30.0,-91.0,1262.0,57.0,-1
17.6099,6.0,-185.0,40.0,-63.0,1278.0,66.0,-1
17.6106,5.0,-187.0,48.0,-42.0,1272.0,63.0,-1
17.6404,4.0,-191.0,57.0,-31.0,1262.0,41.0,-1
17.6407,1.0,-190.0,65.0,-30.0,1270.0,2.0,-1
17.6701,3.0,-190.0,72.0,-32.0,1253.0,-29.0,-1
17.6705,7.0,-189.0,80.0,-62.0,1203.0,-72.0,-1
17.6998,7.0,-179.0,82.0,-84.0,1160.0,-111.0,-1
17.7305,2.0,-164.0,82.0,-73.0,1133.0,-141.0,-1
17.7307,-2.0,-148.0,83.0,-58.0,1123.0,-166.0,-1
17.731,-5.0,-136.0,87.0,-44.0,1096.0,-193.0,-1
17.7899,-5.0,-125.0,90.0,-62.0,1048.0,-221.0,-1
17.7902,-5.0,-113.0,90.0,-73.0,983.0,-255.0,-1
17.7907,-7.0,-96.0,84.0,-51.0,943.0,-278.0,-1
17.7915,-8.0,-76.0,79.0,-20.0,928.0,-288.0,-1
17.8196,-6.0,-59.0,78.0,0.0,925.0,-289.0,-1
17.8202,0.0,-52.0,80.0,19.0,887.0,-279.0,-1
17.8804,3.0,-49.0,81.0,36.0,846.0,-270.0,-1
17.8807,10.0,-51.0,77.0,20.0,801.0,-266.0,-1
17.8808,14.0,-53.0,74.0,9.0,740.0,-282.0,-1
17.8816,16.0,-53.0,69.0,11.0,688.0,-297.0,-1
17.9711,21.0,-54.0,61.0,21.0,679.0,-310.0,-1
17.9714,24.0,-58.0,58.0,24.0,656.0,-327.0,-1
17.972,27.0,-67.0,57.0,-8.0,635.0,-361.0,-1
17.9722,30.0,-77.0,53.0,-50.0,610.0,-396.0,-1
17.9997,33.0,-82.0,46.0,-107.0,602.0,-435.0,-1
18.0003,33.0,-86.0,36.0,-163.0,574.0,-493.0,-1
18.001,33.0,-89.0,26.0,-213.0,543.0,-563.0,-1
18.0302,35.0,-85.0,16.0,-291.0,533.0,-626.0,-1
18.0305,33.0,-81.0,9.0,-390.0,533.0,-692.0,-1
18.0309,31.0,-74.0,0.0,-548.0,548.0,-753.0,-1
18.0612,31.0,-65.0,-11.0,-722.0,538.0,-831.0,-1
18.0903,31.0,-60.0,-29.0,-884.0,560.0,-916.0,-1
18.0903,36.0,-57.0,-55.0,-1077.0,611.0,-1033.0,-1
18.0911,14.0,-20.0,-97.0,-1495.0,718.0,-1264.0,-1
18.1196,-21.0,59.0,-136.0,-1831.0,898.0,-1527.0,-1
18.12,-19.0,160.0,-191.0,-2126.0,1200.0,-1877.0,-1
18.1504,45.0,264.0,-241.0,-2529.0,1570.0,-2363.0,-1
18.1506,199.0,392.0,-287.0,-2966.0,1947.0,-2858.0,-1
18.1805,349.0,551.0,-349.0,-3741.0,2405.0,-2813.0,-1
18.1807,372.0,721.0,-411.0,-4437.0,3116.0,-2356.0,-1
18.2104,301.0,872.0,-412.0,-4766.0,3758.0,-2049.0,-1
18.2107,223.0,1000.0,-351.0,-4816.0,4251.0,-1782.0,-1
18.2406,178.0,1084.0,-269.0,-4756.0,4441.0,-1453.0,-1
18.2407,151.0,1114.0,-185.0,-4595.0,4411.0,-1059.0,-1
18.2698,123.0,1087.0,-96.0,-4246.0,4164.0,-740.0,-1
18.2702,97.0,1018.0,-4.0,-3900.0,3790.0,-531.0,-1
18.3003,96.0,927.0,71.0,-3595.0,3411.0,-429.0,-1
18.3007,115.0,832.0,120.0,-3239.0,2943.0,-365.0,-1
18.3301,126.0,751.0,153.0,-2884.0,2486.0,-289.0,-1
18.3304,122.0,677.0,171.0,-2523.0,2158.0,-207.0,-1
18.3602,107.0,609.0,180.0,-2167.0,1835.0,-116.0,-1
18.3609,87.0,544.0,179.0,-1866.0,1618.0,-51.0,-1
18.3903,74.0,487.0,170.0,-1600.0,1395.0,-12.0,-1
18.3906,72.0,436.0,159.0,-1358.0,1206.0,11.0,-1
18.4202,77.0,390.0,145.0,-1148.0,1073.0,41.0,-1
18.4205,78.0,351.0,136.0,-960.0,995.0,74.0,-1
18.4503,76.0,312.0,133.0,-779.0,894.0,129.0,-1
18.4506,77.0,288.0,136.0,-667.0,834.0,171.0,-1
18.4805,88.0,263.0,136.0,-580.0,757.0,216.0,-1
18.4807,105.0,235.0,132.0,-499.0,683.0,265.0,-1
18.5102,123.0,208.0,127.0,-425.0,613.0,318.0,-1
18.5105,134.0,182.0,120.0,-361.0,550.0,367.0,-1
18.5404,129.0,165.0,112.0,-286.0,478.0,406.0,-1
18.5406,112.0,153.0,105.0,-215.0,428.0,439.0,-1
18.6003,100.0,113.0,97.0,-93.0,342.0,486.0,-1
18.6303,127.0,61.0,71.0,-30.0,292.0,518.0,-1
18.6305,133.0,47.0,55.0,-10.0,255.0,545.0,-1
18.6602,126.0,43.0,41.0,36.0,230.0,574.0,-1
18.6605,113.0,42.0,25.0,96.0,232.0,598.0,-1
18.6898,99.0,38.0,6.0,143.0,277.0,627.0,-1
18.6906,86.0,34.0,-16.0,194.0,341.0,643.0,-1
18.7204,78.0,28.0,-36.0,259.0,436.0,652.0,-1
18.7207,70.0,22.0,-48.0,320.0,539.0,665.0,-1
18.7501,57.0,18.0,-51.0,367.0,626.0,676.0,-1
18.81,36.0,0.0,-62.0,470.0,834.0,636.0,-1
18.8111,30.0,-13.0,-67.0,477.0,977.0,568.0,-1
18.8398,29.0,-20.0,-52.0,534.0,1054.0,552.0,-1
18.8403,31.0,-25.0,-46.0,513.0,1073.0,546.0,-1
18.87,35.0,-27.0,-41.0,464.0,1039.0,551.0,-1
18.9004,31.0,-35.0,-32.0,334.0,929.0,585.0,-1
18.9007,23.0,-42.0,-33.0,302.0,884.0,593.0,-1
18.9303,16.0,-56.0,-35.0,273.0,854.0,578.0,-1
18.9604,15.0,-93.0,-34.0,174.0,808.0,519.0,-1
18.9607,16.0,-112.0,-34.0,121.0,762.0,487.0,-1
18.9902,13.0,-129.0,-39.0,77.0,742.0,454.0,-1
19.0205,-6.0,-153.0,-48.0,63.0,737.0,368.0,-1
19.0209,-14.0,-167.0,-51.0,42.0,747.0,333.0,-1
19.0505,-17.0,-182.0,-55.0,8.0,733.0,300.0,-1
19.0506,-20.0,-200.0,-62.0,-13.0,711.0,265.0,-1
19.0804,-26.0,-215.0,-73.0,-71.0,714.0,212.0,-1
19.0806,-37.0,-222.0,-85.0,-110.0,724.0,136.0,-1
19.1104,-46.0,-225.0,-101.0,-139.0,755.0,42.0,-1
19.1105,-54.0,-222.0,-114.0,-131.0,849.0,-66.0,-1
19.1405,-59.0,-212.0,-118.0,-134.0,952.0,-125.0,-1
19.1409,-61.0,-196.0,-118.0,-135.0,995.0,-128.0,-1
19.1704,-63.0,-196.0,-122.0,-128.0,998.0,-128.0,-1
19.1706,-61.0,-208.0,-132.0,-111.0,1051.0,-143.0,-1
19.2002,-52.0,-237.0,-141.0,-80.0,1151.0,-193.0,-1
19.2004,-45.0,-261.0,-141.0,-110.0,1192.0,-252.0,-1
19.2305,-45.0,-268.0,-137.0,-178.0,1224.0,-333.0,-1
19.2308,-52.0,-258.0,-139.0,-223.0,1277.0,-387.0,-1
19.26,-56.0,-238.0,-144.0,-234.0,1292.0,-395.0,-1
19.2604,-55.0,-232.0,-145.0,-153.0,1332.0,-388.0,-1
19.2901,-45.0,-248.0,-144.0,-102.0,1397.0,-366.0,-1
19.2903,-37.0,-264.0,-140.0,-92.0,1421.0,-356.0,-1
19.3198,-24.0,-290.0,-129.0,-105.0,1393.0,-361.0,-1
19.3202,-11.0,-313.0,-116.0,-189.0,1343.0,-419.0,-1
19.3497,-2.0,-313.0,-111.0,-277.0,1325.0,-468.0,-1
19.3502,4.0,-304.0,-115.0,-285.0,1300.0,-488.0,-1
19.38,3.0,-299.0,-117.0,-246.0,1294.0,-480.0,-1
19.3803,1.0,-311.0,-112.0,-170.0,1355.0,-475.0,-1
19.4097,6.0,-333.0,-105.0,-154.0,1357.0,-466.0,-1
19.4103,9.0,-350.0,-97.0,-171.0,1327.0,-475.0,-1
19.4405,11.0,-364.0,-85.0,-253.0,1310.0,-503.0,-1
19.4408,15.0,-365.0,-77.0,-303.0,1248.0,-513.0,-1
19.4704,17.0,-359.0,-75.0,-318.0,1180.0,-510.0,-1
19.4706,14.0,-356.0,-76.0,-298.0,1161.0,-503.0,-1
19.5001,10.0,-359.0,-70.0,-297.0,1143.0,-502.0,-1
19.5006,12.0,-365.0,-66.0,-332.0,1141.0,-506.0,-1
19.5302,18.0,-365.0,-62.0,-388.0,1122.0,-513.0,-1
19.5306,22.0,-354.0,-56.0,-424.0,1074.0,-524.0,-1
19.5604,25.0,-334.0,-54.0,-466.0,1039.0,-534.0,-1
19.5605,29.0,-307.0,-56.0,-485.0,985.0,-537.0,-1
19.5903,26.0,-274.0,-56.0,-464.0,905.0,-530.0,-1
19.5905,16.0,-240.0,-52.0,-464.0,872.0,-509.0,-1
19.62,5.0,-210.0,-49.0,-467.0,860.0,-479.0,-1
19.6824,2.0,-189.0,-55.0,-466.0,875.0,-454.0,-1
19.7097,9.0,-180.0,-66.0,-461.0,890.0,-432.0,-1
19.7102,18.0,-174.0,-78.0,-463.0,907.0,-411.0,-1
19.7106,23.0,-162.0,-87.0,-440.0,958.0,-373.0,-1
19.7114,22.0,-141.0,-90.0,-407.0,1032.0,-311.0,-1
19.7124,23.0,-125.0,-84.0,-360.0,1121.0,-240.0,-1
19.7398,32.0,-139.0,-58.0,-312.0,1133.0,-153.0,-1
19.7404,39.0,-156.0,-53.0,-334.0,1110.0,-153.0,-1
19.7705,47.0,-170.0,-55.0,-347.0,1067.0,-171.0,-1
19.771,51.0,-174.0,-57.0,-361.0,1052.0,-195.0,-1
19.7997,52.0,-166.0,-56.0,-361.0,1058.0,-207.0,-1
19.8003,56.0,-154.0,-55.0,-351.0,1065.0,-196.0,-1
19.83,57.0,-142.0,-52.0,-320.0,1074.0,-165.0,-1
19.8302,54.0,-131.0,-47.0,-288.0,1087.0,-125.0,-1
19.8604,51.0,-122.0,-40.0,-262.0,1116.0,-95.0,-1
19.8608,52.0,-117.0,-35.0,-234.0,1133.0,-64.0,-1
19.8903,55.0,-111.0,-31.0,-199.0,1151.0,-30.0,-1
19.8906,58.0,-107.0,-26.0,-163.0,1160.0,6.0,-1
19.9206,62.0,-107.0,-20.0,-124.0,1178.0,49.0,-1
19.921,65.0,-111.0,-10.0,-89.0,1178.0,87.0,-1
19.9503,65.0,-119.0,0.0,-86.0,1170.0,103.0,-1
19.9507,63.0,-124.0,4.0,-101.0,1159.0,109.0,-1
