t,gx,gy,gz,ax,ay,az,gesture
0.0,16.0,-11.0,-9.0,-215.0,859.0,164.0,-1
0.0295,11.0,-10.0,-16.0,-164.0,883.0,209.0,-1
0.03,8.0,-14.0,-14.0,-159.0,888.0,216.0,-1
0.0592,4.0,-20.0,-10.0,-167.0,871.0,213.0,-1
0.0596,-4.0,-26.0,-5.0,-167.0,863.0,214.0,-1
0.0893,-14.0,-36.0,0.0,-160.0,838.0,220.0,-1
0.0898,-26.0,-49.0,11.0,-151.0,842.0,223.0,-1
0.1189,-31.0,-63.0,21.0,-168.0,855.0,213.0,-1
0.1196,-30.0,-78.0,25.0,-198.0,827.0,189.0,-1
0.1491,-24.0,-87.0,24.0,-246.0,787.0,165.0,-1
0.1497,-18.0,-86.0,25.0,-286.0,711.0,146.0,-1
0.179,-22.0,-80.0,25.0,-296.0,633.0,144.0,-1
0.1796,-33.0,-72.0,23.0,-345.0,590.0,153.0,-1
0.24,-44.0,-67.0,19.0,-378.0,571.0,153.0,-1
0.24,-55.0,-60.0,8.0,-445.0,599.0,144.0,-1
0.2407,-53.0,-55.0,-11.0,-521.0,611.0,148.0,-1
0.241,-41.0,-43.0,-47.0,-552.0,617.0,102.0,-1
0.2696,-31.0,-37.0,-74.0,-565.0,597.0,76.0,-1
0.2997,-21.0,-37.0,-115.0,-592.0,629.0,51.0,-1
0.3001,-15.0,-42.0,-132.0,-630.0,711.0,33.0,-1
0.3299,-7.0,-50.0,-157.0,-638.0,763.0,-4.0,-1
0.3299,3.0,-57.0,-169.0,-744.0,817.0,-13.0,-1
0.36,18.0,-59.0,-174.0,-795.0,924.0,-41.0,-1
0.3601,36.0,-60.0,-185.0,-811.0,982.0,-77.0,-1
0.3896,54.0,-59.0,-200.0,-857.0,1041.0,-92.0,-1
0.3899,71.0,-56.0,-215.0,-850.0,1038.0,-101.0,-1
0.4496,75.0,-50.0,-218.0,-806.0,1044.0,-90.0,-1
0.4799,65.0,-35.0,-205.0,-764.0,1086.0,-49.0,-1
0.4799,49.0,-16.0,-175.0,-675.0,1084.0,-17.0,-1
0.4803,36.0,-6.0,-137.0,-622.0,1119.0,32.0,-1
0.4813,44.0,-12.0,-112.0,-602.0,1127.0,74.0,-1
0.4822,64.0,-34.0,-98.0,-567.0,1039.0,112.0,-1
0.5103,77.0,-58.0,-89.0,-554.0,996.0,126.0,-1
0.5106,84.0,-71.0,-75.0,-570.0,963.0,123.0,-1
0.5397,84.0,-75.0,-58.0,-577.0,940.0,119.0,-1
0.5401,83.0,-72.0,-45.0,-604.0,952.0,106.0,-1
0.5694,89.0,-65.0,-40.0,-604.0,914.0,79.0,-1
0.5697,89.0,-56.0,-33.0,-569.0,871.0,71.0,-1
0.5991,83.0,-43.0,-25.0,-579.0,883.0,82.0,-1
0.6291,78.0,-32.0,-15.0,-559.0,874.0,99.0,-1
0.6295,68.0,-25.0,-3.0,-561.0,867.0,125.0,-1
0.6304,60.0,-22.0,5.0,-574.0,858.0,125.0,-1
0.6594,54.0,-18.0,10.0,-586.0,830.0,115.0,-1
0.6597,48.0,-15.0,12.0,-615.0,830.0,114.0,-1
0.689,44.0,-9.0,9.0,-671.0,850.0,112.0,-1
0.6897,40.0,0.0,8.0,-674.0,846.0,106.0,-1
0.7196,33.0,6.0,14.0,-675.0,840.0,111.0,-1
0.7496,25.0,10.0,21.0,-689.0,859.0,115.0,-1
0.7497,21.0,11.0,27.0,-713.0,877.0,117.0,-1
0.7505,19.0,11.0,32.0,-730.0,882.0,116.0,-1
0.7791,20.0,11.0,33.0,-729.0,841.0,98.0,-1
0.7797,16.0,13.0,37.0,-708.0,809.0,92.0,-1
0.809,13.0,14.0,41.0,-702.0,796.0,84.0,-1
0.8094,11.0,13.0,43.0,-694.0,755.0,67.0,-1
0.84,6.0,9.0,49.0,-683.0,718.0,49.0,-1
0.8404,0.0,4.0,55.0,-711.0,715.0,33.0,-1
0.8695,-1.0,0.0,55.0,-748.0,714.0,16.0,-1
0.8697,0.0,-4.0,54.0,-756.0,699.0,-4.0,-1
0.8998,1.0,-11.0,52.0,-770.0,702.0,-16.0,-1
0.9001,5.0,-20.0,46.0,-808.0,702.0,-42.0,-1
0.9308,10.0,-28.0,38.0,-811.0,681.0,-80.0,-1
0.9595,12.0,-31.0,33.0,-808.0,677.0,-107.0,-1
0.96,14.0,-30.0,28.0,-823.0,686.0,-131.0,-1
0.9603,17.0,-28.0,19.0,-813.0,665.0,-149.0,-1
0.9898,17.0,-25.0,12.0,-782.0,656.0,-163.0,-1
0.9901,16.0,-22.0,8.0,-762.0,661.0,-158.0,-1
1.0197,15.0,-19.0,1.0,-749.0,663.0,-151.0,-1
1.02,15.0,-14.0,-4.0,-697.0,643.0,-152.0,-1
1.0498,11.0,-9.0,-5.0,-641.0,636.0,-135.0,-1
1.05,8.0,-8.0,-4.0,-613.0,646.0,-120.0,-1
1.0794,12.0,-12.0,-5.0,-593.0,641.0,-110.0,-1
1.0797,20.0,-18.0,-5.0,-585.0,654.0,-93.0,-1
1.1094,30.0,-29.0,-3.0,-588.0,642.0,-60.0,-1
1.1099,32.0,-37.0,-5.0,-608.0,640.0,-57.0,-1
1.14,33.0,-44.0,-7.0,-626.0,632.0,-69.0,-1
1.1402,31.0,-49.0,-8.0,-648.0,645.0,-90.0,-1
1.1698,30.0,-54.0,-10.0,-684.0,671.0,-111.0,-1
1.1701,32.0,-59.0,-15.0,-746.0,709.0,-145.0,-1
1.1997,36.0,-58.0,-22.0,-770.0,708.0,-178.0,-1
1.2,38.0,-54.0,-27.0,-767.0,717.0,-185.0,-1
1.2297,39.0,-49.0,-32.0,-762.0,732.0,-182.0,-1
1.2299,40.0,-44.0,-37.0,-755.0,745.0,-172.0,-1
1.2596,39.0,-38.0,-40.0,-741.0,761.0,-138.0,-1
1.2599,37.0,-35.0,-40.0,-746.0,767.0,-118.0,-1
1.2898,34.0,-30.0,-45.0,-752.0,768.0,-104.0,-1
1.2901,28.0,-23.0,-45.0,-735.0,779.0,-90.0,-1
1.3196,20.0,-15.0,-43.0,-704.0,790.0,-71.0,-1
1.3499,15.0,-7.0,-40.0,-665.0,786.0,-51.0,-1
1.3501,10.0,0.0,-35.0,-639.0,794.0,-17.0,-1
1.3504,8.0,4.0,-29.0,-610.0,794.0,20.0,-1
1.3798,10.0,5.0,-23.0,-592.0,791.0,70.0,-1
1.3799,16.0,0.0,-17.0,-584.0,786.0,112.0,-1
1.4098,26.0,-12.0,-13.0,-572.0,766.0,140.0,-1
1.4101,37.0,-29.0,-10.0,-574.0,748.0,142.0,-1
1.4394,45.0,-46.0,-7.0,-596.0,729.0,128.0,-1
1.4398,49.0,-62.0,-7.0,-655.0,702.0,77.0,-1
1.4702,48.0,-63.0,-10.0,-680.0,670.0,34.0,-1
1.4704,44.0,-59.0,-16.0,-692.0,648.0,3.0,-1
1.4997,40.0,-51.0,-26.0,-698.0,648.0,-18.0,-1
1.5,36.0,-42.0,-37.0,-672.0,655.0,-32.0,-1
1.5294,33.0,-35.0,-44.0,-648.0,696.0,-29.0,-1
1.5589,31.0,-31.0,-47.0,-629.0,729.0,-20.0,-1
1.5592,28.0,-28.0,-49.0,-635.0,760.0,-5.0,-1
1.56,24.0,-27.0,-49.0,-642.0,795.0,9.0,-1
1.5891,20.0,-26.0,-48.0,-653.0,820.0,3.0,-1
1.6192,19.0,-22.0,-48.0,-688.0,857.0,-8.0,-1
1.6196,19.0,-15.0,-50.0,-684.0,863.0,-18.0,-1
1.6204,20.0,-9.0,-47.0,-668.0,880.0,-2.0,-1
1.6491,21.0,-5.0,-42.0,-666.0,907.0,29.0,-1
1.6497,18.0,-5.0,-33.0,-674.0,929.0,68.0,-1
1.6792,15.0,-6.0,-25.0,-711.0,953.0,90.0,-1
1.6797,7.0,-10.0,-15.0,-754.0,971.0,106.0,-1
1.7096,-1.0,-13.0,-6.0,-791.0,986.0,118.0,-1
1.7696,-11.0,-15.0,2.0,-806.0,984.0,109.0,-1
1.8295,-17.0,-14.0,7.0,-833.0,997.0,72.0,-1
1.8299,-18.0,-10.0,12.0,-801.0,963.0,47.0,-1
1.8304,-20.0,-1.0,18.0,-757.0,927.0,46.0,-1
1.831,-25.0,10.0,24.0,-683.0,865.0,68.0,-1
1.8315,-35.0,23.0,29.0,-597.0,779.0,98.0,-1
1.8325,-66.0,42.0,43.0,-463.0,674.0,148.0,-1
1.8595,-90.0,45.0,56.0,-410.0,642.0,146.0,-1
1.8897,-98.0,39.0,65.0,-425.0,642.0,123.0,-1
1.8902,-103.0,27.0,73.0,-489.0,672.0,77.0,-1
1.8905,-102.0,13.0,81.0,-578.0,707.0,2.0,-1
1.9499,-96.0,-1.0,88.0,-700.0,777.0,-61.0,-1
1.9501,-79.0,-14.0,92.0,-855.0,843.0,-129.0,-1
1.9503,-59.0,-19.0,88.0,-970.0,840.0,-193.0,-1
1.951,-42.0,-7.0,78.0,-990.0,797.0,-240.0,-1
1.9796,-34.0,7.0,69.0,-950.0,771.0,-250.0,-1
1.9799,-29.0,20.0,63.0,-871.0,740.0,-237.0,-1
2.0093,-26.0,30.0,59.0,-810.0,721.0,-212.0,-1
2.0399,-28.0,39.0,59.0,-759.0,688.0,-188.0,-1
2.04,-35.0,49.0,60.0,-726.0,649.0,-168.0,-1
2.0405,-43.0,60.0,57.0,-730.0,611.0,-153.0,-1
2.0694,-53.0,75.0,51.0,-707.0,547.0,-134.0,-1
2.0698,-67.0,86.0,47.0,-662.0,522.0,-115.0,-1
2.0995,-75.0,94.0,43.0,-653.0,521.0,-107.0,-1
2.0998,-80.0,98.0,41.0,-635.0,513.0,-94.0,-1
2.1292,-79.0,99.0,40.0,-644.0,520.0,-79.0,-1
2.1295,-75.0,99.0,36.0,-672.0,523.0,-63.0,-1
2.1592,-68.0,99.0,28.0,-696.0,523.0,-46.0,-1
2.1599,-61.0,100.0,19.0,-713.0,527.0,-33.0,-1
2.1897,-54.0,102.0,9.0,-720.0,531.0,-24.0,-1
2.1899,-48.0,102.0,1.0,-719.0,540.0,-7.0,-1
2.2196,-44.0,102.0,-4.0,-738.0,559.0,15.0,-1
2.2199,-43.0,104.0,-8.0,-732.0,564.0,48.0,-1
2.2497,-44.0,104.0,-12.0,-747.0,577.0,84.0,-1
2.2499,-45.0,104.0,-19.0,-766.0,582.0,100.0,-1
2.28,-47.0,105.0,-26.0,-789.0,601.0,116.0,-1
2.2803,-51.0,105.0,-32.0,-827.0,633.0,129.0,-1
2.31,-57.0,107.0,-43.0,-890.0,672.0,139.0,-1
2.3104,-62.0,113.0,-50.0,-888.0,681.0,154.0,-1
2.3398,-69.0,118.0,-55.0,-861.0,703.0,189.0,-1
2.3399,-73.0,118.0,-58.0,-817.0,724.0,202.0,-1
2.3697,-73.0,115.0,-60.0,-769.0,737.0,205.0,-1
2.3996,-72.0,108.0,-56.0,-741.0,755.0,202.0,-1
2.3999,-71.0,93.0,-49.0,-762.0,750.0,180.0,-1
2.4295,-75.0,90.0,-48.0,-768.0,737.0,161.0,-1
2.4299,-80.0,91.0,-49.0,-738.0,722.0,140.0,-1
2.4591,-86.0,92.0,-48.0,-677.0,710.0,131.0,-1
2.4891,-91.0,91.0,-45.0,-623.0,712.0,121.0,-1
2.4895,-94.0,87.0,-39.0,-574.0,707.0,114.0,-1
2.4903,-97.0,79.0,-32.0,-533.0,697.0,115.0,-1
2.5193,-98.0,67.0,-24.0,-539.0,703.0,95.0,-1
2.5491,-97.0,57.0,-16.0,-560.0,703.0,61.0,-1
2.5497,-93.0,47.0,-11.0,-614.0,717.0,24.0,-1
2.5793,-87.0,39.0,-10.0,-682.0,725.0,-22.0,-1
2.6091,-77.0,31.0,-12.0,-788.0,735.0,-74.0,-1
2.6399,-79.0,26.0,-21.0,-849.0,771.0,-109.0,-1
2.6699,-92.0,35.0,-28.0,-850.0,810.0,-174.0,-1
2.6995,-92.0,52.0,-28.0,-780.0,844.0,-210.0,-1
2.7297,-81.0,60.0,-19.0,-712.0,852.0,-162.0,-1
2.7303,-78.0,60.0,-11.0,-712.0,857.0,-122.0,-1
2.7596,-78.0,59.0,-6.0,-722.0,858.0,-83.0,-1
2.7897,-81.0,53.0,4.0,-699.0,871.0,-46.0,-1
2.79,-83.0,46.0,12.0,-661.0,880.0,-49.0,-1
2.8197,-82.0,38.0,25.0,-629.0,892.0,-67.0,-1
2.8496,-66.0,19.0,55.0,-625.0,887.0,-115.0,-1
2.8797,-53.0,9.0,68.0,-650.0,865.0,-139.0,-1
2.8801,-42.0,4.0,79.0,-687.0,836.0,-150.0,-1
2.9102,-35.0,1.0,88.0,-724.0,812.0,-155.0,-1
2.9107,-28.0,1.0,96.0,-768.0,779.0,-163.0,-1
2.9395,-24.0,8.0,99.0,-793.0,707.0,-163.0,-1
2.9398,-26.0,13.0,97.0,-793.0,671.0,-158.0,-1
2.969,-30.0,20.0,94.0,-794.0,639.0,-152.0,-1
2.9696,-36.0,26.0,89.0,-786.0,614.0,-147.0,-1
2.9996,-43.0,33.0,84.0,-782.0,596.0,-144.0,-1
2.9999,-47.0,40.0,78.0,-774.0,576.0,-149.0,-1
3.0296,-48.0,47.0,69.0,-759.0,553.0,-152.0,-1
3.0299,-48.0,54.0,61.0,-739.0,536.0,-142.0,-1
3.0594,-47.0,58.0,53.0,-724.0,524.0,-126.0,-1
3.0598,-45.0,62.0,44.0,-717.0,512.0,-104.0,-1
3.0893,-44.0,65.0,34.0,-722.0,502.0,-82.0,-1
3.0899,-44.0,70.0,25.0,-728.0,507.0,-53.0,-1
3.1196,-46.0,74.0,16.0,-730.0,516.0,-7.0,-1
3.1198,-47.0,75.0,8.0,-740.0,539.0,39.0,-1
3.1804,-49.0,71.0,0.0,-739.0,569.0,100.0,-1
3.1809,-49.0,65.0,-2.0,-750.0,596.0,127.0,-1
3.181,-44.0,48.0,-10.0,-769.0,631.0,156.0,-1
3.1813,-37.0,31.0,-13.0,-794.0,671.0,155.0,-1
3.2096,-29.0,12.0,-14.0,-838.0,715.0,129.0,-1
3.2099,-15.0,-5.0,-17.0,-902.0,750.0,82.0,-1
3.2396,0.0,-15.0,-22.0,-907.0,748.0,31.0,-1
3.2398,12.0,-18.0,-25.0,-876.0,751.0,8.0,-1
3.2698,23.0,-14.0,-26.0,-821.0,747.0,26.0,-1
3.2701,34.0,-11.0,-26.0,-729.0,718.0,68.0,-1
3.2995,43.0,-12.0,-23.0,-665.0,708.0,123.0,-1
3.3003,52.0,-18.0,-19.0,-638.0,678.0,179.0,-1
3.3296,54.0,-20.0,-16.0,-636.0,636.0,226.0,-1
3.33,46.0,-21.0,-13.0,-650.0,599.0,269.0,-1
3.3595,32.0,-22.0,-14.0,-684.0,589.0,281.0,-1
3.3597,17.0,-21.0,-18.0,-708.0,592.0,264.0,-1
3.3898,4.0,-20.0,-19.0,-714.0,633.0,225.0,-1
3.3902,7.0,-24.0,-19.0,-731.0,696.0,187.0,-1
3.4196,21.0,-32.0,-20.0,-745.0,724.0,163.0,-1
3.4498,35.0,-42.0,-18.0,-755.0,737.0,161.0,-1
3.4798,46.0,-50.0,-17.0,-775.0,744.0,147.0,-1
3.48,53.0,-54.0,-15.0,-773.0,752.0,130.0,-1
3.4804,59.0,-55.0,-12.0,-754.0,767.0,120.0,-1
3.481,66.0,-55.0,-6.0,-719.0,787.0,118.0,-1
3.5095,74.0,-57.0,0.0,-683.0,767.0,128.0,-1
3.5096,75.0,-59.0,7.0,-670.0,734.0,147.0,-1
3.54,70.0,-58.0,11.0,-661.0,688.0,157.0,-1
3.5403,59.0,-55.0,16.0,-661.0,657.0,165.0,-1
3.5693,46.0,-51.0,17.0,-665.0,636.0,174.0,-1
3.5698,37.0,-48.0,18.0,-668.0,628.0,173.0,-1
3.5992,35.0,-49.0,18.0,-671.0,633.0,161.0,-1
3.5998,40.0,-53.0,18.0,-677.0,630.0,154.0,-1
3.6593,45.0,-58.0,16.0,-706.0,623.0,146.0,-1
3.6599,47.0,-59.0,13.0,-750.0,616.0,134.0,-1
3.6602,46.0,-56.0,7.0,-792.0,602.0,128.0,-1
3.661,42.0,-51.0,-1.0,-814.0,588.0,128.0,-1
3.6895,34.0,-40.0,-15.0,-813.0,593.0,124.0,-1
3.6898,33.0,-32.0,-26.0,-773.0,628.0,134.0,-1
3.7196,43.0,-33.0,-32.0,-702.0,681.0,146.0,-1
3.7199,64.0,-43.0,-36.0,-661.0,708.0,173.0,-1
3.7498,85.0,-52.0,-39.0,-646.0,705.0,195.0,-1
3.75,95.0,-57.0,-42.0,-630.0,689.0,222.0,-1
3.7797,93.0,-58.0,-44.0,-620.0,680.0,242.0,-1
3.7799,82.0,-58.0,-47.0,-607.0,682.0,239.0,-1
3.8403,70.0,-59.0,-49.0,-585.0,698.0,217.0,-1
3.8407,60.0,-62.0,-49.0,-589.0,727.0,182.0,-1
3.841,53.0,-65.0,-50.0,-607.0,738.0,131.0,-1
3.8414,48.0,-64.0,-49.0,-622.0,750.0,78.0,-1
3.8697,45.0,-62.0,-48.0,-624.0,745.0,42.0,-1
3.8701,43.0,-63.0,-49.0,-628.0,773.0,5.0,-1
3.8997,46.0,-60.0,-51.0,-633.0,797.0,-28.0,-1
3.9001,41.0,-50.0,-48.0,-622.0,790.0,-44.0,-1
3.9299,31.0,-40.0,-44.0,-624.0,798.0,-49.0,-1
3.9306,21.0,-30.0,-40.0,-634.0,815.0,-37.0,-1
3.9597,11.0,-21.0,-37.0,-622.0,822.0,-31.0,-1
3.9602,3.0,-14.0,-34.0,-615.0,827.0,-36.0,-1
3.9897,-1.0,-8.0,-29.0,-597.0,831.0,-42.0,-1
3.9899,-3.0,-3.0,-22.0,-581.0,846.0,-48.0,-1
4.0198,0.0,0.0,-15.0,-585.0,849.0,-43.0,-1
4.02,5.0,1.0,-9.0,-588.0,835.0,-28.0,-1
4.0799,8.0,4.0,-2.0,-584.0,814.0,-8.0,-1
4.08,10.0,6.0,2.0,-583.0,793.0,6.0,-1
4.0805,9.0,7.0,6.0,-587.0,776.0,16.0,-1
4.081,7.0,10.0,10.0,-584.0,755.0,25.0,-1
4.1098,5.0,12.0,13.0,-583.0,744.0,38.0,-1
4.1101,5.0,13.0,15.0,-588.0,733.0,36.0,-1
4.1395,4.0,16.0,17.0,-587.0,723.0,37.0,-1
4.14,2.0,19.0,20.0,-589.0,727.0,46.0,-1
4.1696,3.0,20.0,21.0,-596.0,733.0,44.0,-1
4.1697,6.0,21.0,22.0,-590.0,720.0,46.0,-1
4.199,7.0,21.0,25.0,-584.0,713.0,53.0,-1
4.1996,9.0,17.0,27.0,-621.0,721.0,50.0,-1
4.2313,9.0,14.0,28.0,-681.0,732.0,31.0,-1
4.2315,7.0,13.0,28.0,-795.0,772.0,0.0,-1
4.2597,3.0,12.0,25.0,-885.0,808.0,-21.0,-1
4.26,0.0,17.0,19.0,-932.0,820.0,-50.0,-1
4.2895,-6.0,28.0,14.0,-902.0,822.0,-66.0,-1
4.3197,-12.0,40.0,13.0,-821.0,834.0,-61.0,-1
4.3202,-11.0,46.0,15.0,-712.0,819.0,-45.0,-1
4.3204,-10.0,49.0,22.0,-632.0,797.0,-9.0,-1
4.3797,-8.0,50.0,31.0,-588.0,772.0,33.0,-1
4.3798,-6.0,47.0,39.0,-571.0,722.0,63.0,-1
4.3803,-10.0,45.0,46.0,-571.0,686.0,89.0,-1
4.381,-18.0,44.0,52.0,-592.0,666.0,103.0,-1
4.4095,-25.0,42.0,54.0,-615.0,650.0,101.0,-1
4.4099,-32.0,40.0,56.0,-637.0,654.0,87.0,-1
4.4397,-37.0,37.0,59.0,-678.0,673.0,67.0,-1
4.4401,-37.0,31.0,59.0,-752.0,703.0,32.0,-1
4.4698,-34.0,25.0,57.0,-847.0,724.0,-2.0,-1
4.4701,-32.0,20.0,55.0,-940.0,752.0,-19.0,-1
4.4996,-32.0,16.0,50.0,-1012.0,772.0,-31.0,-1
4.5,-31.0,13.0,42.0,-1054.0,775.0,-52.0,-1
4.5297,-31.0,13.0,32.0,-1034.0,765.0,-72.0,-1
4.53,-30.0,14.0,26.0,-980.0,761.0,-86.0,-1
4.56,-26.0,12.0,22.0,-902.0,747.0,-95.0,-1
4.5602,-18.0,7.0,21.0,-824.0,726.0,-100.0,-1
4.5901,-8.0,4.0,21.0,-752.0,692.0,-108.0,-1
4.5902,3.0,0.0,22.0,-699.0,643.0,-99.0,-1
4.6192,12.0,-2.0,21.0,-690.0,612.0,-74.0,-1
4.6197,15.0,0.0,18.0,-687.0,556.0,-30.0,-1
4.6492,12.0,2.0,13.0,-674.0,527.0,12.0,-1
4.6498,8.0,2.0,6.0,-669.0,518.0,48.0,-1
4.679,5.0,-1.0,0.0,-659.0,524.0,78.0,-1
4.6797,2.0,-9.0,-7.0,-666.0,537.0,95.0,-1
4.7094,1.0,-20.0,-12.0,-677.0,560.0,88.0,-1
4.7099,4.0,-37.0,-18.0,-712.0,608.0,58.0,-1
4.7398,13.0,-52.0,-22.0,-735.0,641.0,15.0,-1
4.7399,26.0,-65.0,-26.0,-745.0,671.0,-25.0,-1
4.7698,40.0,-77.0,-29.0,-748.0,685.0,-62.0,-1
4.7701,53.0,-86.0,-32.0,-747.0,685.0,-93.0,-1
4.8001,61.0,-90.0,-34.0,-744.0,677.0,-118.0,-1
4.8003,66.0,-89.0,-38.0,-751.0,674.0,-133.0,-1
4.829,67.0,-84.0,-44.0,-751.0,655.0,-135.0,-1
4.8297,63.0,-79.0,-49.0,-743.0,646.0,-121.0,-1
4.8589,58.0,-76.0,-55.0,-723.0,635.0,-109.0,-1
4.8597,51.0,-74.0,-59.0,-701.0,631.0,-112.0,-1
4.8902,48.0,-74.0,-65.0,-684.0,647.0,-122.0,-1
4.8905,50.0,-76.0,-70.0,-667.0,660.0,-142.0,-1
4.9197,50.0,-76.0,-74.0,-656.0,673.0,-151.0,-1
4.9201,50.0,-76.0,-76.0,-649.0,686.0,-154.0,-1
4.9497,50.0,-76.0,-78.0,-650.0,710.0,-164.0,-1
4.95,47.0,-75.0,-79.0,-660.0,733.0,-174.0,-1
5.0098,44.0,-72.0,-78.0,-663.0,773.0,-176.0,-1
5.0098,40.0,-68.0,-76.0,-655.0,800.0,-169.0,-1
5.04,31.0,-65.0,-69.0,-676.0,840.0,-179.0,-1
5.0403,21.0,-63.0,-61.0,-743.0,908.0,-201.0,-1
5.0404,14.0,-65.0,-50.0,-866.0,1019.0,-228.0,-1
5.0411,14.0,-69.0,-41.0,-968.0,1106.0,-275.0,-1
5.0697,22.0,-69.0,-31.0,-944.0,1119.0,-336.0,-1
5.07,36.0,-63.0,-18.0,-853.0,1077.0,-377.0,-1
5.1006,57.0,-50.0,-1.0,-708.0,968.0,-377.0,-1
5.1008,74.0,-31.0,14.0,-645.0,878.0,-289.0,-1
5.1292,82.0,-14.0,24.0,-609.0,773.0,-152.0,-1
5.1294,78.0,1.0,30.0,-616.0,696.0,-12.0,-1
5.1592,61.0,16.0,28.0,-629.0,627.0,116.0,-1
5.1599,36.0,26.0,20.0,-622.0,590.0,218.0,-1
5.1893,10.0,29.0,13.0,-623.0,621.0,283.0,-1
5.1898,-11.0,27.0,15.0,-624.0,681.0,297.0,-1
5.2191,-12.0,0.0,30.0,-682.0,780.0,257.0,-1
5.2499,4.0,-17.0,39.0,-723.0,795.0,226.0,-1
5.2506,25.0,-30.0,47.0,-758.0,778.0,206.0,-1
5.2808,44.0,-37.0,50.0,-775.0,725.0,208.0,-1
5.3096,53.0,-38.0,52.0,-779.0,658.0,233.0,-1
5.3099,50.0,-34.0,52.0,-777.0,599.0,256.0,-1
5.3103,38.0,-26.0,50.0,-782.0,556.0,278.0,-1
5.3395,24.0,-20.0,45.0,-792.0,528.0,292.0,-1
5.3698,11.0,-18.0,37.0,-792.0,511.0,294.0,-1
5.3701,3.0,-18.0,29.0,-790.0,516.0,291.0,-1
5.3991,-1.0,-20.0,24.0,-772.0,508.0,277.0,-1
5.3996,0.0,-25.0,16.0,-760.0,511.0,253.0,-1
5.4297,7.0,-30.0,8.0,-736.0,511.0,228.0,-1
5.4598,23.0,-42.0,-3.0,-727.0,546.0,174.0,-1
5.5194,31.0,-46.0,-14.0,-748.0,576.0,131.0,-1
5.5197,28.0,-40.0,-27.0,-731.0,606.0,91.0,-1
5.549,27.0,-34.0,-32.0,-666.0,652.0,89.0,-1
5.5791,32.0,-37.0,-29.0,-639.0,682.0,99.0,-1
5.5796,36.0,-42.0,-27.0,-652.0,691.0,87.0,-1
5.61,37.0,-45.0,-25.0,-673.0,701.0,77.0,-1
5.6403,37.0,-47.0,-26.0,-773.0,740.0,18.0,-1
5.6404,37.0,-42.0,-30.0,-789.0,742.0,-6.0,-1
5.6699,33.0,-32.0,-32.0,-774.0,742.0,-11.0,-1
5.6997,25.0,-7.0,-35.0,-661.0,716.0,33.0,-1
5.7,21.0,0.0,-33.0,-612.0,709.0,74.0,-1
5.7293,16.0,2.0,-29.0,-584.0,702.0,110.0,-1
5.7295,12.0,0.0,-25.0,-572.0,705.0,132.0,-1
5.7594,9.0,-5.0,-20.0,-575.0,715.0,132.0,-1
5.7599,11.0,-14.0,-11.0,-596.0,742.0,96.0,-1
5.82,19.0,-22.0,-5.0,-621.0,766.0,58.0,-1
5.8202,28.0,-27.0,1.0,-647.0,776.0,32.0,-1
5.8203,35.0,-31.0,7.0,-669.0,773.0,18.0,-1
5.8212,40.0,-31.0,12.0,-700.0,767.0,3.0,-1
5.8495,42.0,-29.0,15.0,-709.0,759.0,4.0,-1
5.8797,43.0,-21.0,20.0,-709.0,726.0,36.0,-1
5.8799,41.0,-18.0,20.0,-706.0,711.0,65.0,-1
5.9091,39.0,-16.0,20.0,-699.0,693.0,90.0,-1
5.91,37.0,-16.0,20.0,-684.0,681.0,109.0,-1
5.939,36.0,-18.0,20.0,-685.0,669.0,115.0,-1
5.9397,36.0,-20.0,18.0,-699.0,664.0,106.0,-1
5.9689,36.0,-17.0,13.0,-710.0,655.0,107.0,-1
5.9697,36.0,-14.0,8.0,-711.0,653.0,118.0,-1
5.9996,35.0,-12.0,3.0,-697.0,646.0,137.0,-1
6.0,32.0,-12.0,0.0,-691.0,657.0,154.0,-1
6.0599,27.0,-11.0,-2.0,-683.0,672.0,159.0,-1
6.0602,23.0,-10.0,-4.0,-678.0,681.0,161.0,-1
6.0605,19.0,-8.0,-6.0,-684.0,697.0,153.0,-1
6.061,16.0,-7.0,-7.0,-682.0,713.0,145.0,-1
6.0895,15.0,-5.0,-8.0,-677.0,723.0,133.0,-1
6.0898,13.0,-4.0,-7.0,-673.0,731.0,123.0,-1
6.1188,13.0,-4.0,-5.0,-666.0,737.0,116.0,-1
6.1194,13.0,-4.0,-3.0,-663.0,742.0,99.0,-1
6.1492,14.0,-5.0,-1.0,-661.0,738.0,95.0,-1
6.1498,14.0,-6.0,0.0,-659.0,740.0,89.0,-1
6.2093,14.0,-6.0,2.0,-663.0,744.0,83.0,-1
6.24,15.0,-5.0,3.0,-658.0,742.0,80.0,-1
6.2405,17.0,-5.0,4.0,-646.0,725.0,74.0,-1
6.2408,17.0,-4.0,5.0,-636.0,709.0,71.0,-1
6.2413,15.0,-2.0,6.0,-638.0,698.0,68.0,-1
6.2417,13.0,1.0,5.0,-642.0,687.0,72.0,-1
6.2694,9.0,4.0,3.0,-654.0,688.0,79.0,-1
6.2696,4.0,6.0,2.0,-680.0,710.0,82.0,-1
6.2996,2.0,7.0,1.0,-725.0,744.0,75.0,-1
6.3,0.0,6.0,0.0,-784.0,776.0,65.0,-1
6.33,0.0,6.0,0.0,-847.0,810.0,58.0,-1
6.3305,-1.0,8.0,-3.0,-861.0,828.0,53.0,-1
6.42,-1.0,12.0,-5.0,-812.0,834.0,52.0,-1
6.4204,-1.0,14.0,-3.0,-719.0,814.0,60.0,-1
6.4205,-1.0,12.0,3.0,-641.0,789.0,68.0,-1
6.4211,0.0,8.0,10.0,-622.0,758.0,74.0,-1
6.4214,-2.0,7.0,15.0,-625.0,711.0,73.0,-1
6.4226,-9.0,7.0,18.0,-654.0,688.0,74.0,-1
6.449,-16.0,6.0,20.0,-686.0,692.0,56.0,-1
6.4497,-18.0,6.0,20.0,-699.0,702.0,37.0,-1
6.479,-16.0,5.0,22.0,-702.0,719.0,19.0,-1
6.4797,-10.0,1.0,24.0,-719.0,742.0,5.0,-1
6.5097,-1.0,-2.0,26.0,-730.0,734.0,1.0,-1
6.5105,3.0,-5.0,28.0,-735.0,720.0,11.0,-1
6.5391,4.0,-6.0,30.0,-749.0,703.0,20.0,-1
6.5397,2.0,-6.0,30.0,-752.0,681.0,19.0,-1
6.5699,-2.0,-5.0,30.0,-762.0,678.0,17.0,-1
6.5702,-6.0,-5.0,30.0,-775.0,681.0,6.0,-1
6.5994,-7.0,-6.0,28.0,-788.0,677.0,-7.0,-1
6.5997,-7.0,-6.0,27.0,-790.0,669.0,-13.0,-1
6.6298,-7.0,-7.0,25.0,-796.0,664.0,-14.0,-1
6.6302,-4.0,-8.0,22.0,-801.0,660.0,-19.0,-1
6.6595,-2.0,-9.0,19.0,-813.0,666.0,-17.0,-1
6.66,-1.0,-10.0,16.0,-831.0,672.0,-19.0,-1
6.6897,-1.0,-10.0,13.0,-848.0,673.0,-18.0,-1
6.6899,-3.0,-9.0,10.0,-849.0,674.0,-16.0,-1
6.7191,-6.0,-7.0,7.0,-838.0,670.0,-11.0,-1
6.7197,-12.0,-4.0,5.0,-815.0,674.0,-8.0,-1
6.7506,-18.0,-2.0,3.0,-789.0,676.0,-4.0,-1
6.7508,-22.0,-1.0,4.0,-763.0,676.0,-4.0,-1
6.8096,-25.0,-3.0,6.0,-746.0,672.0,-1.0,-1
6.84,-24.0,-8.0,8.0,-735.0,663.0,-6.0,-1
6.8402,-22.0,-13.0,9.0,-727.0,643.0,-11.0,-1
6.8406,-19.0,-17.0,9.0,-720.0,630.0,-20.0,-1
6.8411,-16.0,-23.0,9.0,-730.0,642.0,-23.0,-1
6.8416,-10.0,-30.0,10.0,-735.0,654.0,-18.0,-1
6.8697,0.0,-42.0,11.0,-733.0,661.0,-12.0,-1
6.87,12.0,-55.0,14.0,-715.0,653.0,-15.0,-1
6.8996,27.0,-71.0,17.0,-720.0,649.0,-22.0,-1
6.9,43.0,-87.0,18.0,-728.0,636.0,-35.0,-1
6.9296,57.0,-101.0,19.0,-754.0,622.0,-45.0,-1
6.9303,70.0,-112.0,18.0,-782.0,604.0,-56.0,-1
6.9596,81.0,-121.0,13.0,-787.0,588.0,-76.0,-1
6.9599,87.0,-126.0,9.0,-776.0,581.0,-97.0,-1
6.99,91.0,-131.0,4.0,-765.0,576.0,-127.0,-1
6.9903,96.0,-134.0,0.0,-762.0,574.0,-166.0,-1
7.0198,104.0,-134.0,-8.0,-748.0,571.0,-208.0,-1
7.0199,111.0,-131.0,-16.0,-758.0,608.0,-228.0,-1
7.0498,112.0,-122.0,-24.0,-750.0,612.0,-210.0,-1
7.05,100.0,-107.0,-31.0,-728.0,613.0,-171.0,-1
7.1093,77.0,-92.0,-41.0,-660.0,660.0,-141.0,-1
7.1095,64.0,-87.0,-44.0,-623.0,706.0,-140.0,-1
7.1101,62.0,-86.0,-47.0,-608.0,757.0,-151.0,-1
7.111,68.0,-86.0,-50.0,-603.0,796.0,-150.0,-1
7.139,74.0,-86.0,-51.0,-594.0,816.0,-137.0,-1
7.1396,83.0,-89.0,-52.0,-570.0,844.0,-121.0,-1
7.1696,91.0,-94.0,-50.0,-560.0,875.0,-117.0,-1
7.2299,96.0,-99.0,-45.0,-550.0,892.0,-117.0,-1
7.2299,99.0,-105.0,-39.0,-549.0,902.0,-122.0,-1
7.2303,102.0,-109.0,-34.0,-567.0,892.0,-133.0,-1
7.2308,101.0,-110.0,-30.0,-585.0,883.0,-150.0,-1
7.2316,100.0,-107.0,-27.0,-601.0,869.0,-164.0,-1
7.2594,97.0,-101.0,-26.0,-603.0,846.0,-174.0,-1
7.2598,93.0,-93.0,-26.0,-595.0,815.0,-169.0,-1
7.3206,86.0,-85.0,-26.0,-588.0,787.0,-141.0,-1
7.3207,72.0,-76.0,-26.0,-594.0,764.0,-100.0,-1
7.3209,61.0,-72.0,-27.0,-623.0,773.0,-81.0,-1
7.3215,53.0,-70.0,-29.0,-650.0,789.0,-81.0,-1
7.38,50.0,-71.0,-29.0,-666.0,812.0,-94.0,-1
7.3805,51.0,-72.0,-28.0,-689.0,840.0,-113.0,-1
7.3809,55.0,-73.0,-27.0,-708.0,859.0,-130.0,-1
7.3813,60.0,-71.0,-25.0,-717.0,872.0,-134.0,-1
7.4106,64.0,-67.0,-20.0,-726.0,883.0,-117.0,-1
7.4109,67.0,-66.0,-16.0,-719.0,879.0,-91.0,-1
7.4396,70.0,-67.0,-11.0,-706.0,858.0,-73.0,-1
7.4693,73.0,-65.0,-6.0,-682.0,825.0,-53.0,-1
7.4704,74.0,-62.0,-3.0,-645.0,769.0,-26.0,-1
7.4993,72.0,-58.0,-1.0,-621.0,719.0,7.0,-1
7.4996,66.0,-53.0,-1.0,-605.0,678.0,32.0,-1
7.5004,59.0,-48.0,-2.0,-596.0,642.0,61.0,-1
7.5297,50.0,-44.0,-5.0,-603.0,624.0,82.0,-1
7.5299,42.0,-42.0,-10.0,-615.0,620.0,89.0,-1
7.5598,34.0,-41.0,-16.0,-629.0,637.0,88.0,-1
7.56,28.0,-40.0,-20.0,-635.0,665.0,71.0,-1
7.5892,24.0,-38.0,-23.0,-647.0,699.0,47.0,-1
7.6193,23.0,-34.0,-24.0,-644.0,737.0,33.0,-1
7.6195,23.0,-32.0,-22.0,-638.0,769.0,29.0,-1
7.6202,24.0,-29.0,-19.0,-636.0,779.0,37.0,-1
7.6492,23.0,-25.0,-15.0,-632.0,781.0,49.0,-1
7.6523,20.0,-21.0,-10.0,-628.0,777.0,66.0,-1
7.6791,17.0,-17.0,-5.0,-618.0,758.0,80.0,-1
7.6795,12.0,-15.0,0.0,-624.0,745.0,91.0,-1
7.7399,10.0,-14.0,2.0,-649.0,737.0,98.0,-1
7.7696,9.0,-14.0,3.0,-684.0,730.0,101.0,-1
7.8001,8.0,-15.0,2.0,-713.0,722.0,95.0,-1
7.8002,10.0,-16.0,0.0,-725.0,718.0,77.0,-1
7.8004,13.0,-17.0,-2.0,-717.0,712.0,62.0,-1
7.8015,18.0,-19.0,-4.0,-691.0,695.0,50.0,-1
7.8019,23.0,-22.0,-7.0,-666.0,693.0,46.0,-1
7.8028,31.0,-25.0,-9.0,-639.0,684.0,38.0,-1
7.8303,34.0,-27.0,-10.0,-632.0,685.0,28.0,-1
7.8306,35.0,-28.0,-11.0,-635.0,691.0,20.0,-1
7.8596,35.0,-28.0,-12.0,-646.0,707.0,7.0,-1
7.8599,36.0,-26.0,-13.0,-656.0,721.0,-12.0,-1
7.8896,36.0,-22.0,-13.0,-653.0,728.0,-26.0,-1
7.9198,36.0,-17.0,-13.0,-648.0,731.0,-28.0,-1
7.9794,35.0,-12.0,-12.0,-637.0,720.0,-17.0,-1
8.0105,32.0,-8.0,-12.0,-631.0,700.0,-4.0,-1
8.011,29.0,-4.0,-14.0,-634.0,680.0,9.0,-1
8.0113,24.0,0.0,-17.0,-637.0,662.0,18.0,-1
8.0118,18.0,4.0,-20.0,-643.0,660.0,25.0,-1
8.012,13.0,9.0,-24.0,-651.0,667.0,22.0,-1
8.0132,8.0,14.0,-28.0,-664.0,690.0,29.0,-1
8.0397,1.0,23.0,-30.0,-634.0,750.0,74.0,-1
8.0999,1.0,24.0,-27.0,-604.0,769.0,90.0,-1
8.1003,10.0,16.0,-13.0,-577.0,790.0,122.0,-1
8.1003,15.0,11.0,-6.0,-593.0,779.0,136.0,-1
8.101,16.0,7.0,-1.0,-615.0,765.0,144.0,-1
8.1291,14.0,5.0,3.0,-658.0,758.0,126.0,-1
8.1591,13.0,4.0,5.0,-674.0,772.0,106.0,-1
8.1899,14.0,3.0,6.0,-688.0,788.0,91.0,-1
8.1901,16.0,2.0,7.0,-709.0,800.0,78.0,-1
8.2194,16.0,1.0,8.0,-764.0,827.0,74.0,-1
8.2199,15.0,0.0,8.0,-838.0,854.0,60.0,-1
8.2802,10.0,0.0,7.0,-922.0,888.0,47.0,-1
8.2803,4.0,4.0,3.0,-945.0,895.0,30.0,-1
8.2808,-4.0,14.0,1.0,-883.0,890.0,26.0,-1
8.2812,-18.0,22.0,11.0,-667.0,862.0,37.0,-1
8.3097,-21.0,19.0,22.0,-634.0,852.0,37.0,-1
8.3699,-20.0,14.0,33.0,-642.0,833.0,40.0,-1
8.3702,-18.0,9.0,48.0,-685.0,789.0,30.0,-1
8.3994,-17.0,7.0,59.0,-694.0,751.0,-4.0,-1
8.4295,-19.0,8.0,66.0,-737.0,702.0,-22.0,-1
8.43,-24.0,11.0,66.0,-765.0,682.0,-31.0,-1
8.4592,-31.0,16.0,64.0,-779.0,660.0,-38.0,-1
8.4892,-47.0,26.0,57.0,-789.0,636.0,-54.0,-1
8.4898,-54.0,31.0,53.0,-791.0,626.0,-64.0,-1
8.5193,-59.0,34.0,48.0,-777.0,617.0,-69.0,-1
8.5496,-54.0,31.0,40.0,-730.0,625.0,-89.0,-1
8.5499,-46.0,27.0,37.0,-716.0,610.0,-104.0,-1
8.5794,-39.0,25.0,34.0,-704.0,581.0,-115.0,-1
8.5796,-35.0,25.0,29.0,-717.0,565.0,-113.0,-1
8.6091,-33.0,25.0,23.0,-737.0,561.0,-111.0,-1
8.6098,-32.0,24.0,16.0,-763.0,561.0,-120.0,-1
8.6403,-31.0,25.0,6.0,-787.0,555.0,-126.0,-1
8.6406,-33.0,28.0,-3.0,-805.0,560.0,-134.0,-1
8.6996,-35.0,33.0,-15.0,-804.0,582.0,-138.0,-1
8.7,-35.0,38.0,-23.0,-781.0,610.0,-135.0,-1
8.7006,-34.0,39.0,-29.0,-760.0,644.0,-126.0,-1
8.7009,-30.0,38.0,-31.0,-744.0,673.0,-116.0,-1
8.7295,-25.0,36.0,-31.0,-721.0,694.0,-102.0,-1
8.7598,-11.0,30.0,-28.0,-644.0,693.0,-69.0,-1
8.7601,-5.0,25.0,-23.0,-615.0,688.0,-57.0,-1
8.7901,0.0,20.0,-20.0,-613.0,667.0,-57.0,-1
8.8201,2.0,18.0,-17.0,-621.0,642.0,-47.0,-1
8.8203,2.0,15.0,-17.0,-629.0,618.0,-39.0,-1
8.8206,0.0,14.0,-19.0,-644.0,608.0,-36.0,-1
8.8495,0.0,13.0,-22.0,-666.0,613.0,-54.0,-1
8.8499,0.0,13.0,-26.0,-689.0,628.0,-69.0,-1
8.8795,0.0,14.0,-31.0,-714.0,638.0,-75.0,-1
8.9105,0.0,15.0,-35.0,-733.0,661.0,-70.0,-1
8.9396,0.0,15.0,-40.0,-755.0,692.0,-69.0,-1
8.9694,0.0,14.0,-43.0,-782.0,738.0,-62.0,-1
8.9696,3.0,13.0,-44.0,-776.0,770.0,-62.0,-1
8.9703,7.0,12.0,-44.0,-737.0,782.0,-69.0,-1
8.971,9.0,11.0,-39.0,-724.0,798.0,-72.0,-1
8.9717,10.0,12.0,-35.0,-737.0,803.0,-66.0,-1
9.0298,6.0,18.0,-31.0,-747.0,793.0,-50.0,-1
9.0299,-3.0,27.0,-28.0,-740.0,767.0,-18.0,-1
9.0602,-14.0,35.0,-27.0,-716.0,750.0,8.0,-1
9.0606,-27.0,41.0,-24.0,-689.0,738.0,26.0,-1
9.0609,-36.0,44.0,-20.0,-684.0,732.0,39.0,-1
9.0611,-43.0,46.0,-17.0,-693.0,731.0,53.0,-1
9.0902,-47.0,46.0,-16.0,-707.0,736.0,67.0,-1
9.0903,-50.0,44.0,-14.0,-711.0,749.0,75.0,-1
9.1199,-51.0,38.0,-9.0,-708.0,781.0,81.0,-1
9.1203,-46.0,29.0,-3.0,-701.0,813.0,80.0,-1
9.1792,-35.0,15.0,3.0,-693.0,834.0,62.0,-1
9.2091,-22.0,1.0,13.0,-696.0,837.0,38.0,-1
9.2095,-9.0,-10.0,22.0,-702.0,825.0,14.0,-1
9.2101,1.0,-19.0,29.0,-712.0,800.0,0.0,-1
9.2107,5.0,-23.0,35.0,-724.0,763.0,-11.0,-1
9.2115,4.0,-24.0,39.0,-725.0,723.0,-24.0,-1
9.239,0.0,-22.0,41.0,-726.0,690.0,-37.0,-1
9.2397,-5.0,-19.0,41.0,-722.0,658.0,-47.0,-1
9.2699,-8.0,-16.0,39.0,-712.0,631.0,-61.0,-1
9.2701,-10.0,-14.0,35.0,-695.0,605.0,-71.0,-1
9.2992,-11.0,-13.0,30.0,-693.0,589.0,-83.0,-1
9.2998,-10.0,-11.0,24.0,-695.0,572.0,-94.0,-1
9.3297,-11.0,-8.0,16.0,-693.0,560.0,-100.0,-1
9.3299,-12.0,-5.0,8.0,-698.0,563.0,-106.0,-1
9.3594,-13.0,0.0,0.0,-695.0,566.0,-112.0,-1
9.3598,-17.0,5.0,-8.0,-684.0,582.0,-107.0,-1
9.4202,-20.0,8.0,-13.0,-671.0,614.0,-101.0,-1
9.4206,-20.0,9.0,-17.0,-665.0,638.0,-95.0,-1
9.4209,-21.0,8.0,-19.0,-681.0,669.0,-95.0,-1
9.421,-21.0,7.0,-21.0,-712.0,706.0,-105.0,-1
9.4496,-21.0,6.0,-22.0,-759.0,746.0,-131.0,-1
9.45,-20.0,6.0,-23.0,-809.0,790.0,-164.0,-1
9.51,-17.0,10.0,-24.0,-820.0,814.0,-190.0,-1
9.51,-15.0,17.0,-24.0,-767.0,820.0,-201.0,-1
9.5103,-14.0,25.0,-19.0,-693.0,815.0,-186.0,-1
9.5112,-12.0,31.0,-12.0,-638.0,801.0,-146.0,-1
9.5393,-14.0,37.0,-3.0,-608.0,773.0,-95.0,-1
9.5398,-19.0,42.0,4.0,-598.0,733.0,-33.0,-1
9.5696,-27.0,45.0,7.0,-620.0,697.0,15.0,-1
9.5699,-43.0,48.0,9.0,-651.0,686.0,53.0,-1
9.5991,-52.0,48.0,10.0,-679.0,710.0,58.0,-1
9.5997,-57.0,45.0,13.0,-707.0,741.0,46.0,-1
9.6599,-56.0,39.0,17.0,-735.0,778.0,35.0,-1
9.6601,-47.0,30.0,21.0,-763.0,808.0,23.0,-1
9.6607,-33.0,21.0,25.0,-778.0,828.0,15.0,-1
9.661,-18.0,12.0,31.0,-775.0,827.0,15.0,-1
9.6897,-5.0,5.0,36.0,-762.0,810.0,27.0,-1
9.69,2.0,0.0,43.0,-742.0,776.0,46.0,-1
9.7198,3.0,-1.0,48.0,-730.0,737.0,64.0,-1
9.7202,0.0,-2.0,52.0,-723.0,694.0,75.0,-1
9.7796,-6.0,-1.0,55.0,-734.0,664.0,81.0,-1
9.7799,-12.0,0.0,55.0,-756.0,643.0,82.0,-1
9.7804,-15.0,0.0,53.0,-776.0,626.0,83.0,-1
9.7811,-15.0,-2.0,50.0,-790.0,616.0,81.0,-1
9.8108,-13.0,-4.0,46.0,-795.0,604.0,77.0,-1
9.8111,-7.0,-7.0,39.0,-786.0,589.0,75.0,-1
9.8397,0.0,-12.0,33.0,-769.0,579.0,72.0,-1
9.8399,7.0,-15.0,27.0,-757.0,570.0,73.0,-1
9.8696,12.0,-18.0,21.0,-752.0,561.0,74.0,-1
9.8699,13.0,-18.0,15.0,-748.0,558.0,82.0,-1
9.9306,11.0,-17.0,9.0,-747.0,557.0,89.0,-1
9.9309,8.0,-16.0,2.0,-747.0,567.0,94.0,-1
9.9598,7.0,-15.0,-3.0,-734.0,577.0,101.0,-1
9.96,7.0,-17.0,-8.0,-717.0,591.0,100.0,-1
9.961,10.0,-22.0,-11.0,-705.0,605.0,97.0,-1
9.9617,13.0,-27.0,-13.0,-709.0,614.0,84.0,-1
9.9892,16.0,-31.0,-16.0,-728.0,626.0,65.0,-1
10.0192,19.0,-33.0,-20.0,-747.0,632.0,45.0,-1
10.0195,19.0,-31.0,-25.0,-755.0,638.0,31.0,-1
10.0204,18.0,-27.0,-29.0,-754.0,645.0,22.0,-1
10.0496,15.0,-20.0,-33.0,-733.0,656.0,24.0,-1
10.0801,12.0,-15.0,-35.0,-710.0,658.0,35.0,-1
10.0803,10.0,-10.0,-36.0,-691.0,663.0,54.0,-1
10.0806,8.0,-6.0,-37.0,-688.0,667.0,79.0,-1
10.1095,6.0,-3.0,-38.0,-698.0,672.0,98.0,-1
10.1396,4.0,0.0,-39.0,-700.0,686.0,119.0,-1
10.1398,3.0,-1.0,-38.0,-699.0,706.0,145.0,-1
10.1402,5.0,-6.0,-36.0,-696.0,731.0,153.0,-1
10.1997,12.0,-15.0,-33.0,-702.0,751.0,146.0,-1
10.1998,22.0,-26.0,-30.0,-714.0,755.0,128.0,-1
10.2017,31.0,-34.0,-28.0,-722.0,748.0,108.0,-1
10.2019,38.0,-40.0,-27.0,-724.0,733.0,88.0,-1
10.2296,44.0,-44.0,-28.0,-716.0,724.0,75.0,-1
10.2298,47.0,-45.0,-28.0,-700.0,714.0,65.0,-1
10.2597,48.0,-47.0,-29.0,-700.0,714.0,51.0,-1
10.2599,48.0,-46.0,-30.0,-704.0,720.0,38.0,-1
10.289,47.0,-45.0,-31.0,-715.0,729.0,37.0,-1
10.2897,44.0,-42.0,-32.0,-719.0,734.0,35.0,-1
10.3199,40.0,-39.0,-32.0,-712.0,739.0,36.0,-1
10.3201,35.0,-34.0,-32.0,-706.0,754.0,37.0,-1
10.3494,31.0,-28.0,-30.0,-676.0,766.0,44.0,-1
10.3497,27.0,-24.0,-27.0,-655.0,772.0,58.0,-1
10.3795,23.0,-21.0,-21.0,-643.0,781.0,75.0,-1
10.3799,18.0,-18.0,-14.0,-641.0,782.0,88.0,-1
10.4091,16.0,-17.0,-7.0,-649.0,780.0,101.0,-1
10.4097,16.0,-17.0,0.0,-654.0,771.0,108.0,-1
10.4699,17.0,-19.0,6.0,-647.0,755.0,113.0,-1
10.4701,21.0,-22.0,12.0,-642.0,735.0,111.0,-1
10.4997,26.0,-26.0,18.0,-640.0,705.0,111.0,-1
10.5002,31.0,-29.0,21.0,-649.0,668.0,117.0,-1
10.5005,34.0,-31.0,21.0,-661.0,640.0,110.0,-1
10.5012,38.0,-33.0,19.0,-666.0,618.0,100.0,-1
10.56,40.0,-33.0,16.0,-676.0,609.0,93.0,-1
10.56,42.0,-33.0,12.0,-679.0,602.0,79.0,-1
10.5603,44.0,-31.0,6.0,-673.0,598.0,65.0,-1
10.561,45.0,-26.0,0.0,-650.0,593.0,64.0,-1
10.5906,44.0,-21.0,-5.0,-642.0,595.0,77.0,-1
10.6194,40.0,-16.0,-9.0,-640.0,610.0,84.0,-1
10.6492,36.0,-11.0,-11.0,-647.0,633.0,102.0,-1
10.6498,33.0,-8.0,-14.0,-655.0,656.0,111.0,-1
10.6503,31.0,-5.0,-15.0,-665.0,687.0,119.0,-1
10.6512,29.0,-2.0,-15.0,-675.0,708.0,126.0,-1
10.6792,28.0,0.0,-13.0,-691.0,724.0,140.0,-1
10.7097,27.0,0.0,-12.0,-712.0,741.0,154.0,-1
10.7102,25.0,0.0,-10.0,-739.0,753.0,164.0,-1
10.7106,21.0,2.0,-9.0,-760.0,769.0,165.0,-1
10.7396,18.0,4.0,-6.0,-767.0,788.0,168.0,-1
10.7401,17.0,5.0,-3.0,-764.0,804.0,181.0,-1
10.7705,20.0,2.0,1.0,-735.0,811.0,197.0,-1
10.7709,25.0,-4.0,8.0,-724.0,805.0,203.0,-1
10.7996,31.0,-13.0,14.0,-731.0,782.0,209.0,-1
10.7998,35.0,-21.0,16.0,-750.0,747.0,202.0,-1
10.8304,35.0,-26.0,16.0,-750.0,715.0,185.0,-1
10.8308,33.0,-29.0,15.0,-744.0,692.0,151.0,-1
10.8596,29.0,-31.0,12.0,-729.0,682.0,109.0,-1
10.8599,24.0,-30.0,11.0,-710.0,681.0,65.0,-1
10.8896,19.0,-28.0,11.0,-687.0,685.0,23.0,-1
10.8899,18.0,-25.0,12.0,-659.0,680.0,-3.0,-1
10.9195,16.0,-22.0,14.0,-642.0,679.0,-23.0,-1
10.9198,16.0,-21.0,16.0,-636.0,674.0,-28.0,-1
10.9495,14.0,-20.0,19.0,-650.0,679.0,-30.0,-1
10.9504,13.0,-20.0,22.0,-675.0,690.0,-44.0,-1
10.979,12.0,-20.0,24.0,-699.0,698.0,-60.0,-1
10.9797,11.0,-20.0,27.0,-733.0,702.0,-80.0,-1
11.0092,10.0,-19.0,27.0,-775.0,705.0,-96.0,-1
11.0391,10.0,-15.0,26.0,-815.0,703.0,-107.0,-1
11.0397,8.0,-11.0,24.0,-834.0,697.0,-95.0,-1
11.0996,8.0,-9.0,22.0,-839.0,697.0,-81.0,-1
11.1002,8.0,-12.0,19.0,-834.0,696.0,-77.0,-1
11.1601,10.0,-15.0,16.0,-823.0,691.0,-88.0,-1
11.1603,15.0,-19.0,12.0,-767.0,654.0,-123.0,-1
11.1604,18.0,-19.0,9.0,-747.0,629.0,-140.0,-1
11.1609,19.0,-17.0,5.0,-738.0,610.0,-153.0,-1
11.1618,16.0,-8.0,-5.0,-743.0,580.0,-155.0,-1
11.2197,5.0,8.0,-21.0,-696.0,564.0,-126.0,-1
11.2496,-6.0,20.0,-30.0,-604.0,585.0,-80.0,-1
11.2796,-11.0,18.0,-28.0,-582.0,628.0,-43.0,-1
11.2799,-12.0,14.0,-26.0,-599.0,656.0,-36.0,-1
11.3095,-9.0,7.0,-23.0,-625.0,693.0,-46.0,-1
11.3404,3.0,-9.0,-14.0,-682.0,755.0,-110.0,-1
11.3697,12.0,-15.0,-10.0,-717.0,766.0,-151.0,-1
11.3699,20.0,-18.0,-7.0,-740.0,767.0,-177.0,-1
11.3996,28.0,-14.0,-4.0,-756.0,737.0,-198.0,-1
11.4297,27.0,-7.0,-5.0,-749.0,717.0,-190.0,-1
11.4302,23.0,0.0,-6.0,-747.0,699.0,-173.0,-1
11.4307,17.0,6.0,-8.0,-748.0,686.0,-148.0,-1
11.4595,6.0,14.0,-12.0,-743.0,682.0,-121.0,-1
11.489,-2.0,23.0,-15.0,-705.0,691.0,-107.0,-1
11.4898,-2.0,26.0,-16.0,-692.0,693.0,-94.0,-1
11.5202,-1.0,28.0,-17.0,-686.0,696.0,-74.0,-1
11.5204,0.0,29.0,-17.0,-695.0,696.0,-45.0,-1
11.55,-2.0,29.0,-18.0,-710.0,698.0,-25.0,-1
11.5503,-5.0,30.0,-19.0,-718.0,698.0,-10.0,-1
11.5791,-9.0,31.0,-21.0,-723.0,706.0,-5.0,-1
11.5797,-15.0,32.0,-21.0,-712.0,716.0,-2.0,-1
11.6397,-18.0,32.0,-20.0,-702.0,730.0,-4.0,-1
11.6694,-20.0,32.0,-17.0,-684.0,736.0,-14.0,-1
11.6698,-22.0,30.0,-14.0,-685.0,746.0,-25.0,-1
11.67,-22.0,28.0,-10.0,-696.0,751.0,-32.0,-1
11.6707,-22.0,27.0,-6.0,-706.0,749.0,-39.0,-1
11.6714,-22.0,27.0,-3.0,-694.0,737.0,-43.0,-1
11.6991,-22.0,26.0,0.0,-684.0,732.0,-51.0,-1
11.729,-22.0,22.0,6.0,-692.0,717.0,-49.0,-1
11.7297,-24.0,21.0,8.0,-704.0,710.0,-47.0,-1
11.7599,-27.0,19.0,10.0,-715.0,713.0,-59.0,-1
11.76,-29.0,17.0,12.0,-721.0,722.0,-77.0,-1
11.7903,-28.0,13.0,15.0,-726.0,731.0,-102.0,-1
11.7903,-25.0,9.0,18.0,-740.0,744.0,-128.0,-1
11.8197,-22.0,7.0,21.0,-759.0,739.0,-157.0,-1
11.8201,-19.0,8.0,23.0,-760.0,726.0,-180.0,-1
11.8506,-17.0,11.0,25.0,-748.0,711.0,-187.0,-1
11.9097,-18.0,15.0,26.0,-732.0,692.0,-180.0,-1
11.9098,-19.0,19.0,27.0,-720.0,677.0,-161.0,-1
11.9399,-22.0,21.0,27.0,-719.0,663.0,-142.0,-1
11.9402,-26.0,22.0,26.0,-727.0,651.0,-129.0,-1
11.941,-30.0,22.0,25.0,-731.0,645.0,-131.0,-1
11.9696,-32.0,23.0,23.0,-733.0,644.0,-144.0,-1
11.9699,-31.0,23.0,21.0,-735.0,642.0,-157.0,-1
12.0,-30.0,23.0,18.0,-741.0,639.0,-165.0,-1
12.0,-28.0,25.0,15.0,-741.0,634.0,-166.0,-1
12.0003,-27.0,26.0,12.0,-740.0,626.0,-164.0,-1
12.001,-28.0,29.0,8.0,-748.0,630.0,-151.0,-1
12.0297,-29.0,31.0,4.0,-747.0,639.0,-140.0,-1
12.03,-32.0,33.0,1.0,-745.0,650.0,-123.0,-1
12.0595,-36.0,35.0,0.0,-741.0,664.0,-113.0,-1
12.0896,-39.0,36.0,-1.0,-736.0,674.0,-111.0,-1
12.09,-40.0,37.0,-2.0,-742.0,685.0,-109.0,-1
12.0904,-40.0,39.0,-3.0,-740.0,688.0,-103.0,-1
12.1197,-40.0,40.0,-3.0,-733.0,692.0,-90.0,-1
12.12,-40.0,41.0,-3.0,-726.0,696.0,-72.0,-1
12.1491,-40.0,40.0,-3.0,-722.0,694.0,-58.0,-1
12.1496,-40.0,39.0,-2.0,-713.0,693.0,-45.0,-1
12.1804,-41.0,38.0,-2.0,-710.0,689.0,-35.0,-1
12.1805,-43.0,37.0,-1.0,-701.0,684.0,-33.0,-1
12.2096,-46.0,36.0,0.0,-703.0,684.0,-33.0,-1
12.21,-47.0,35.0,0.0,-702.0,682.0,-42.0,-1
12.2408,-48.0,35.0,0.0,-701.0,678.0,-47.0,-1
12.2408,-49.0,35.0,-1.0,-725.0,681.0,-55.0,-1
12.2706,-50.0,35.0,-3.0,-745.0,680.0,-66.0,-1
12.2998,-52.0,37.0,-5.0,-749.0,686.0,-72.0,-1
12.3002,-53.0,40.0,-8.0,-724.0,686.0,-80.0,-1
12.3006,-54.0,42.0,-8.0,-707.0,691.0,-85.0,-1
12.3297,-55.0,43.0,-8.0,-703.0,691.0,-83.0,-1
12.3601,-57.0,43.0,-8.0,-720.0,691.0,-85.0,-1
12.3601,-59.0,45.0,-10.0,-743.0,689.0,-96.0,-1
12.3605,-64.0,51.0,-13.0,-763.0,680.0,-115.0,-1
12.3895,-71.0,59.0,-16.0,-776.0,682.0,-122.0,-1
12.4198,-78.0,69.0,-20.0,-776.0,681.0,-118.0,-1
12.4201,-85.0,81.0,-25.0,-763.0,678.0,-90.0,-1
12.4205,-94.0,91.0,-27.0,-729.0,683.0,-37.0,-1
12.4494,-102.0,95.0,-27.0,-698.0,695.0,10.0,-1
12.4495,-106.0,93.0,-26.0,-673.0,712.0,41.0,-1
12.4793,-106.0,87.0,-22.0,-654.0,730.0,49.0,-1
12.4795,-101.0,79.0,-16.0,-638.0,747.0,44.0,-1
12.5099,-91.0,68.0,-10.0,-631.0,755.0,28.0,-1
12.5102,-81.0,58.0,-3.0,-627.0,748.0,8.0,-1
12.5393,-71.0,50.0,3.0,-618.0,724.0,-10.0,-1
12.5703,-65.0,45.0,8.0,-614.0,689.0,-25.0,-1
12.5997,-64.0,44.0,12.0,-612.0,661.0,-36.0,-1
12.6002,-65.0,44.0,15.0,-629.0,640.0,-44.0,-1
12.6007,-68.0,46.0,15.0,-653.0,624.0,-45.0,-1
12.6015,-71.0,48.0,15.0,-688.0,622.0,-40.0,-1
12.6298,-72.0,49.0,12.0,-746.0,647.0,-40.0,-1
12.63,-69.0,47.0,7.0,-826.0,696.0,-37.0,-1
12.6597,-64.0,45.0,2.0,-899.0,752.0,-40.0,-1
12.6598,-59.0,44.0,-1.0,-949.0,798.0,-41.0,-1
12.6896,-51.0,44.0,-8.0,-950.0,829.0,-38.0,-1
12.6899,-44.0,47.0,-11.0,-887.0,835.0,-17.0,-1
12.7196,-38.0,50.0,-11.0,-793.0,817.0,26.0,-1
12.7198,-35.0,51.0,-8.0,-692.0,789.0,80.0,-1
12.7497,-34.0,51.0,0.0,-602.0,749.0,151.0,-1
12.7502,-36.0,48.0,5.0,-566.0,706.0,183.0,-1
12.7794,-41.0,45.0,11.0,-561.0,679.0,206.0,-1
12.7801,-45.0,40.0,15.0,-566.0,655.0,208.0,-1
12.8091,-47.0,32.0,17.0,-587.0,643.0,186.0,-1
12.8392,-46.0,26.0,18.0,-610.0,633.0,142.0,-1
12.8395,-43.0,22.0,17.0,-643.0,623.0,98.0,-1
12.8402,-40.0,21.0,15.0,-674.0,617.0,65.0,-1
12.8697,-36.0,20.0,10.0,-716.0,614.0,31.0,-1
12.8702,-34.0,22.0,2.0,-751.0,612.0,6.0,-1
12.8997,-33.0,28.0,-6.0,-769.0,617.0,-4.0,-1
12.8999,-33.0,36.0,-15.0,-761.0,623.0,-2.0,-1
12.93,-35.0,42.0,-23.0,-727.0,635.0,14.0,-1
12.9597,-37.0,45.0,-29.0,-704.0,653.0,25.0,-1
12.9602,-38.0,48.0,-33.0,-677.0,663.0,35.0,-1
12.9606,-40.0,50.0,-34.0,-639.0,670.0,52.0,-1
12.9897,-40.0,50.0,-36.0,-608.0,678.0,58.0,-1
12.9901,-38.0,48.0,-35.0,-584.0,688.0,52.0,-1
13.0199,-36.0,46.0,-34.0,-593.0,698.0,41.0,-1
13.02,-33.0,46.0,-33.0,-612.0,698.0,30.0,-1
13.0497,-33.0,49.0,-34.0,-632.0,693.0,29.0,-1
13.0498,-37.0,54.0,-35.0,-634.0,687.0,44.0,-1
13.0791,-44.0,59.0,-37.0,-633.0,696.0,63.0,-1
13.0794,-52.0,62.0,-37.0,-622.0,714.0,77.0,-1
13.109,-58.0,64.0,-36.0,-604.0,738.0,77.0,-1
13.1094,-58.0,62.0,-32.0,-590.0,759.0,65.0,-1
13.139,-57.0,60.0,-27.0,-580.0,770.0,54.0,-1
13.1394,-55.0,57.0,-21.0,-582.0,770.0,39.0,-1
13.1693,-53.0,55.0,-14.0,-580.0,767.0,23.0,-1
13.1698,-52.0,53.0,-7.0,-583.0,764.0,6.0,-1
13.1994,-51.0,51.0,-1.0,-592.0,749.0,-11.0,-1
13.1999,-50.0,51.0,4.0,-606.0,738.0,-29.0,-1
13.2291,-50.0,51.0,9.0,-620.0,731.0,-43.0,-1
13.2297,-50.0,50.0,13.0,-657.0,741.0,-56.0,-1
13.26,-49.0,48.0,17.0,-702.0,756.0,-74.0,-1
13.26,-46.0,47.0,21.0,-739.0,776.0,-89.0,-1
13.2896,-42.0,45.0,25.0,-768.0,788.0,-105.0,-1
13.2899,-37.0,43.0,29.0,-789.0,795.0,-116.0,-1
13.3194,-33.0,41.0,33.0,-815.0,801.0,-119.0,-1
13.3196,-27.0,38.0,37.0,-849.0,797.0,-110.0,-1
13.3497,-23.0,36.0,39.0,-865.0,792.0,-105.0,-1
13.35,-22.0,34.0,41.0,-877.0,793.0,-108.0,-1
13.3793,-21.0,33.0,44.0,-891.0,791.0,-108.0,-1
13.4094,-19.0,33.0,47.0,-887.0,778.0,-116.0,-1
13.4098,-17.0,34.0,49.0,-870.0,753.0,-113.0,-1
13.4104,-16.0,37.0,50.0,-845.0,716.0,-99.0,-1
13.4391,-16.0,42.0,50.0,-808.0,656.0,-79.0,-1
13.4398,-21.0,47.0,50.0,-775.0,601.0,-45.0,-1
13.4694,-26.0,51.0,49.0,-757.0,562.0,-28.0,-1
13.4698,-34.0,55.0,46.0,-734.0,513.0,-2.0,-1
13.4992,-42.0,59.0,41.0,-722.0,477.0,11.0,-1
13.4998,-49.0,62.0,34.0,-713.0,454.0,21.0,-1
13.5302,-55.0,65.0,26.0,-700.0,443.0,25.0,-1
13.5305,-61.0,66.0,18.0,-685.0,447.0,25.0,-1
13.5596,-65.0,64.0,12.0,-689.0,470.0,14.0,-1
13.5601,-67.0,62.0,7.0,-722.0,503.0,-7.0,-1
13.5897,-67.0,56.0,1.0,-784.0,543.0,-27.0,-1
13.5901,-66.0,52.0,-5.0,-865.0,597.0,-41.0,-1
13.6191,-65.0,47.0,-13.0,-932.0,650.0,-61.0,-1
13.6199,-64.0,42.0,-21.0,-984.0,704.0,-94.0,-1
13.649,-61.0,36.0,-30.0,-985.0,749.0,-139.0,-1
13.6497,-56.0,34.0,-33.0,-943.0,776.0,-172.0,-1
13.679,-48.0,33.0,-35.0,-877.0,779.0,-190.0,-1
13.6798,-39.0,32.0,-33.0,-804.0,768.0,-196.0,-1
13.7094,-32.0,32.0,-29.0,-745.0,741.0,-178.0,-1
13.7097,-29.0,33.0,-25.0,-711.0,709.0,-142.0,-1
13.7392,-32.0,35.0,-23.0,-686.0,673.0,-106.0,-1
13.7395,-39.0,38.0,-21.0,-667.0,649.0,-72.0,-1
13.769,-47.0,40.0,-19.0,-654.0,640.0,-44.0,-1
13.7699,-52.0,38.0,-18.0,-636.0,647.0,-38.0,-1
13.7992,-46.0,23.0,-12.0,-639.0,673.0,-61.0,-1
13.8293,-38.0,15.0,-10.0,-661.0,682.0,-79.0,-1
13.8296,-30.0,7.0,-8.0,-688.0,691.0,-100.0,-1
13.8595,-23.0,1.0,-8.0,-704.0,699.0,-119.0,-1
13.8599,-18.0,-2.0,-7.0,-721.0,710.0,-142.0,-1
13.8892,-14.0,-3.0,-7.0,-722.0,714.0,-157.0,-1
13.9197,-11.0,-3.0,-6.0,-722.0,715.0,-162.0,-1
13.92,-10.0,-1.0,-6.0,-715.0,700.0,-168.0,-1
13.9492,-12.0,1.0,-5.0,-697.0,690.0,-164.0,-1
13.9496,-16.0,6.0,-5.0,-681.0,679.0,-153.0,-1
13.9793,-19.0,8.0,-4.0,-668.0,674.0,-147.0,-1
14.0094,-23.0,13.0,-4.0,-665.0,655.0,-141.0,-1
14.0394,-24.0,15.0,-4.0,-636.0,653.0,-109.0,-1
14.0695,-21.0,10.0,-1.0,-659.0,665.0,-96.0,-1
14.0996,-18.0,5.0,0.0,-761.0,710.0,-106.0,-1
14.1293,-11.0,0.0,-1.0,-867.0,793.0,-137.0,-1
14.1593,5.0,-2.0,-1.0,-859.0,822.0,-173.0,-1
14.1595,13.0,2.0,1.0,-799.0,800.0,-168.0,-1
14.1892,17.0,8.0,4.0,-734.0,743.0,-121.0,-1
14.2193,7.0,26.0,8.0,-655.0,631.0,14.0,-1
14.2198,-5.0,34.0,9.0,-634.0,588.0,80.0,-1
14.2499,-18.0,38.0,8.0,-628.0,572.0,128.0,-1
14.2793,-40.0,36.0,5.0,-650.0,600.0,140.0,-1
14.2796,-43.0,33.0,3.0,-679.0,620.0,116.0,-1
14.3101,-42.0,30.0,0.0,-710.0,636.0,93.0,-1
14.3103,-38.0,29.0,-4.0,-736.0,655.0,80.0,-1
14.3396,-35.0,27.0,-7.0,-768.0,696.0,82.0,-1
14.3398,-33.0,25.0,-7.0,-787.0,736.0,94.0,-1
14.3694,-32.0,20.0,-4.0,-801.0,779.0,98.0,-1
14.3702,-29.0,14.0,0.0,-791.0,807.0,94.0,-1
14.3992,-24.0,8.0,8.0,-751.0,808.0,87.0,-1
14.3995,-18.0,2.0,18.0,-709.0,790.0,74.0,-1
14.4292,-10.0,-3.0,29.0,-688.0,759.0,69.0,-1
14.4591,-3.0,-6.0,37.0,-686.0,713.0,67.0,-1
14.4595,0.0,-8.0,44.0,-690.0,660.0,81.0,-1
14.4604,-2.0,-7.0,49.0,-719.0,620.0,102.0,-1
14.4895,-7.0,-9.0,50.0,-756.0,596.0,106.0,-1
14.4899,-11.0,-11.0,49.0,-806.0,591.0,82.0,-1
14.5195,-13.0,-11.0,46.0,-845.0,594.0,57.0,-1
14.5201,-13.0,-10.0,42.0,-873.0,588.0,31.0,-1
14.5494,-11.0,-8.0,32.0,-902.0,583.0,5.0,-1
14.5793,-9.0,-1.0,24.0,-911.0,578.0,-10.0,-1
14.5795,-6.0,7.0,14.0,-889.0,569.0,6.0,-1
14.5803,-5.0,18.0,4.0,-843.0,554.0,45.0,-1
14.6093,-7.0,25.0,-3.0,-778.0,547.0,95.0,-1
14.6096,-9.0,30.0,-8.0,-742.0,552.0,150.0,-1
14.6394,-10.0,31.0,-12.0,-715.0,562.0,204.0,-1
14.6397,-9.0,27.0,-15.0,-698.0,572.0,246.0,-1
14.6696,-6.0,17.0,-19.0,-687.0,585.0,263.0,-1
14.6702,-2.0,5.0,-21.0,-677.0,598.0,259.0,-1
14.6995,2.0,-5.0,-23.0,-674.0,610.0,237.0,-1
14.6998,7.0,-13.0,-25.0,-677.0,620.0,203.0,-1
14.7292,13.0,-19.0,-28.0,-681.0,630.0,175.0,-1
14.7297,18.0,-22.0,-30.0,-683.0,643.0,149.0,-1
14.7591,21.0,-24.0,-32.0,-685.0,655.0,129.0,-1
14.7596,21.0,-23.0,-35.0,-690.0,660.0,116.0,-1
14.7892,20.0,-21.0,-38.0,-684.0,660.0,104.0,-1
14.7896,16.0,-19.0,-40.0,-665.0,659.0,93.0,-1
14.8191,11.0,-16.0,-41.0,-640.0,656.0,77.0,-1
14.8196,7.0,-14.0,-40.0,-613.0,663.0,56.0,-1
14.8491,5.0,-12.0,-39.0,-609.0,663.0,32.0,-1
14.8495,3.0,-9.0,-38.0,-608.0,668.0,12.0,-1
14.8792,4.0,-6.0,-37.0,-609.0,683.0,1.0,-1
14.8797,7.0,-3.0,-35.0,-617.0,698.0,-3.0,-1
14.9092,10.0,-1.0,-33.0,-620.0,716.0,0.0,-1
14.9098,13.0,-2.0,-29.0,-622.0,735.0,4.0,-1
14.9414,18.0,-3.0,-25.0,-622.0,749.0,9.0,-1
14.9415,22.0,-5.0,-21.0,-622.0,757.0,6.0,-1
14.9732,25.0,-5.0,-15.0,-614.0,764.0,10.0,-1
14.9733,27.0,-6.0,-8.0,-600.0,769.0,11.0,-1
15.0048,30.0,-7.0,-1.0,-581.0,767.0,19.0,-1
15.0049,35.0,-9.0,7.0,-559.0,758.0,28.0,-1
15.0289,39.0,-13.0,16.0,-559.0,742.0,36.0,-1
15.0296,43.0,-18.0,23.0,-586.0,728.0,42.0,-1
15.0596,45.0,-24.0,29.0,-646.0,734.0,30.0,-1
15.06,49.0,-31.0,32.0,-754.0,755.0,0.0,-1
15.0897,52.0,-36.0,32.0,-876.0,779.0,-39.0,-1
15.0901,55.0,-41.0,27.0,-981.0,815.0,-72.0,-1
15.1189,64.0,-42.0,20.0,-1022.0,834.0,-112.0,-1
15.1197,70.0,-35.0,12.0,-992.0,820.0,-131.0,-1
15.1498,71.0,-22.0,6.0,-906.0,795.0,-118.0,-1
15.1501,66.0,-11.0,4.0,-810.0,776.0,-79.0,-1
15.1796,59.0,-2.0,3.0,-736.0,756.0,-29.0,-1
15.1798,47.0,10.0,5.0,-674.0,732.0,28.0,-1
15.2098,31.0,21.0,9.0,-611.0,702.0,83.0,-1
15.2098,17.0,28.0,14.0,-556.0,687.0,133.0,-1
15.2398,8.0,26.0,21.0,-512.0,675.0,167.0,-1
15.2696,3.0,19.0,30.0,-504.0,668.0,181.0,-1
15.2699,4.0,8.0,38.0,-536.0,660.0,175.0,-1
15.2704,6.0,-3.0,44.0,-615.0,660.0,162.0,-1
15.2999,6.0,-12.0,45.0,-731.0,672.0,135.0,-1
15.3004,2.0,-20.0,44.0,-869.0,715.0,106.0,-1
15.3294,-1.0,-26.0,41.0,-997.0,781.0,64.0,-1
15.3592,-3.0,-31.0,35.0,-1057.0,820.0,15.0,-1
15.3595,-2.0,-33.0,30.0,-1048.0,843.0,-33.0,-1
15.3606,-1.0,-34.0,30.0,-996.0,858.0,-79.0,-1
15.3898,4.0,-36.0,33.0,-937.0,840.0,-104.0,-1
15.3902,10.0,-35.0,37.0,-871.0,800.0,-114.0,-1
15.4196,16.0,-34.0,41.0,-806.0,742.0,-104.0,-1
15.4198,20.0,-32.0,44.0,-763.0,678.0,-82.0,-1
15.4491,16.0,-28.0,44.0,-743.0,622.0,-57.0,-1
15.4497,9.0,-23.0,42.0,-733.0,571.0,-38.0,-1
15.4796,0.0,-18.0,38.0,-731.0,535.0,-28.0,-1
15.4804,-10.0,-13.0,31.0,-723.0,503.0,-24.0,-1
15.5099,-19.0,-10.0,23.0,-709.0,497.0,-28.0,-1
15.5102,-22.0,-12.0,16.0,-689.0,507.0,-28.0,-1
15.5398,-16.0,-18.0,9.0,-678.0,526.0,-35.0,-1
15.5402,-4.0,-27.0,2.0,-683.0,541.0,-39.0,-1
15.5694,9.0,-41.0,-4.0,-715.0,573.0,-29.0,-1
15.5698,17.0,-51.0,-9.0,-731.0,593.0,-24.0,-1
15.5997,25.0,-63.0,-13.0,-753.0,625.0,-34.0,-1
15.6,33.0,-75.0,-18.0,-767.0,649.0,-71.0,-1
15.6299,41.0,-82.0,-20.0,-755.0,665.0,-110.0,-1
15.6304,48.0,-87.0,-21.0,-735.0,676.0,-144.0,-1
15.6597,53.0,-90.0,-21.0,-716.0,681.0,-175.0,-1
15.66,56.0,-89.0,-19.0,-748.0,677.0,-204.0,-1
15.69,42.0,-79.0,-21.0,-817.0,658.0,-192.0,-1
15.6902,12.0,-60.0,-26.0,-879.0,646.0,-184.0,-1
15.7197,-10.0,-43.0,-32.0,-905.0,659.0,-187.0,-1
15.7201,-36.0,-19.0,-40.0,-880.0,714.0,-185.0,-1
15.7491,-38.0,-7.0,-45.0,-793.0,766.0,-178.0,-1
15.7496,-20.0,-8.0,-44.0,-686.0,795.0,-155.0,-1
15.7793,9.0,-20.0,-39.0,-611.0,789.0,-119.0,-1
15.7797,37.0,-34.0,-30.0,-586.0,754.0,-74.0,-1
15.8093,57.0,-47.0,-23.0,-604.0,697.0,-17.0,-1
15.8697,65.0,-55.0,-19.0,-640.0,644.0,22.0,-1
15.8697,67.0,-59.0,-20.0,-665.0,621.0,42.0,-1
15.8703,64.0,-63.0,-22.0,-671.0,618.0,45.0,-1
15.871,63.0,-70.0,-22.0,-691.0,633.0,18.0,-1
15.8716,66.0,-76.0,-23.0,-724.0,659.0,-19.0,-1
15.8993,73.0,-80.0,-25.0,-778.0,693.0,-62.0,-1
15.8997,79.0,-81.0,-28.0,-802.0,710.0,-93.0,-1
15.9291,83.0,-77.0,-29.0,-792.0,714.0,-114.0,-1
15.9296,84.0,-70.0,-30.0,-766.0,711.0,-114.0,-1
15.9593,83.0,-61.0,-29.0,-734.0,694.0,-84.0,-1
15.96,77.0,-51.0,-28.0,-699.0,668.0,-33.0,-1
15.9894,68.0,-44.0,-26.0,-673.0,647.0,23.0,-1
15.9898,57.0,-38.0,-23.0,-675.0,643.0,69.0,-1
16.0195,49.0,-36.0,-21.0,-682.0,655.0,106.0,-1
16.0199,45.0,-41.0,-18.0,-702.0,675.0,125.0,-1
16.0797,47.0,-52.0,-13.0,-755.0,700.0,118.0,-1
16.0801,52.0,-65.0,-10.0,-820.0,716.0,77.0,-1
16.0806,60.0,-74.0,-10.0,-882.0,718.0,27.0,-1
16.1093,67.0,-75.0,-12.0,-911.0,691.0,-2.0,-1
16.1096,70.0,-68.0,-18.0,-909.0,662.0,0.0,-1
16.1105,69.0,-58.0,-24.0,-874.0,646.0,47.0,-1
16.1397,65.0,-52.0,-29.0,-823.0,648.0,110.0,-1
16.1397,62.0,-51.0,-31.0,-776.0,664.0,154.0,-1
16.1696,60.0,-54.0,-30.0,-727.0,673.0,188.0,-1
16.1701,59.0,-62.0,-27.0,-695.0,677.0,202.0,-1
16.1997,58.0,-72.0,-22.0,-685.0,681.0,200.0,-1
16.1999,58.0,-82.0,-17.0,-700.0,689.0,182.0,-1
16.2595,61.0,-90.0,-13.0,-710.0,698.0,155.0,-1
16.26,64.0,-100.0,-7.0,-723.0,714.0,121.0,-1
16.2602,70.0,-109.0,-2.0,-760.0,739.0,70.0,-1
16.2611,76.0,-115.0,2.0,-788.0,746.0,23.0,-1
16.2897,80.0,-116.0,6.0,-802.0,744.0,-10.0,-1
16.2904,84.0,-113.0,10.0,-788.0,720.0,-24.0,-1
16.3195,89.0,-110.0,12.0,-761.0,692.0,-19.0,-1
16.3199,91.0,-108.0,15.0,-717.0,648.0,0.0,-1
16.3497,92.0,-107.0,18.0,-679.0,607.0,14.0,-1
16.35,91.0,-106.0,19.0,-654.0,560.0,22.0,-1
16.3798,90.0,-104.0,17.0,-655.0,520.0,21.0,-1
16.3802,87.0,-100.0,11.0,-654.0,482.0,23.0,-1
16.4095,81.0,-95.0,5.0,-656.0,475.0,20.0,-1
16.4098,79.0,-91.0,-6.0,-662.0,504.0,0.0,-1
16.4397,80.0,-88.0,-13.0,-654.0,535.0,-10.0,-1
16.4697,80.0,-85.0,-19.0,-640.0,572.0,-11.0,-1
16.47,83.0,-85.0,-23.0,-632.0,614.0,-13.0,-1
16.4998,87.0,-85.0,-27.0,-632.0,653.0,-18.0,-1
16.5002,89.0,-84.0,-28.0,-640.0,685.0,-26.0,-1
16.5004,91.0,-82.0,-29.0,-652.0,715.0,-30.0,-1
16.5295,93.0,-79.0,-30.0,-656.0,733.0,-32.0,-1
16.5301,94.0,-74.0,-30.0,-655.0,748.0,-28.0,-1
16.5598,94.0,-68.0,-31.0,-634.0,755.0,-16.0,-1
16.5599,91.0,-62.0,-30.0,-619.0,763.0,2.0,-1
16.5899,87.0,-57.0,-27.0,-618.0,774.0,29.0,-1
16.5902,83.0,-52.0,-23.0,-621.0,783.0,57.0,-1
16.6197,79.0,-51.0,-20.0,-622.0,788.0,75.0,-1
16.62,77.0,-48.0,-16.0,-625.0,788.0,88.0,-1
16.6506,75.0,-44.0,-13.0,-632.0,786.0,95.0,-1
16.6509,73.0,-39.0,-10.0,-629.0,776.0,109.0,-1
16.6796,70.0,-34.0,-7.0,-617.0,765.0,135.0,-1
16.6798,67.0,-28.0,-3.0,-596.0,744.0,162.0,-1
16.7401,63.0,-25.0,0.0,-591.0,724.0,189.0,-1
16.7401,57.0,-22.0,1.0,-620.0,710.0,212.0,-1
16.7404,49.0,-20.0,2.0,-666.0,706.0,230.0,-1
16.7415,41.0,-18.0,1.0,-711.0,717.0,235.0,-1
16.7697,35.0,-21.0,0.0,-753.0,749.0,206.0,-1
16.7994,35.0,-24.0,-2.0,-787.0,780.0,159.0,-1
16.7997,40.0,-27.0,-2.0,-813.0,811.0,111.0,-1
16.8293,47.0,-28.0,-2.0,-827.0,822.0,87.0,-1
16.8599,55.0,-25.0,-3.0,-731.0,747.0,110.0,-1
16.9196,48.0,-27.0,-2.0,-626.0,671.0,129.0,-1
16.9198,31.0,-28.0,-2.0,-612.0,639.0,121.0,-1
16.9799,23.0,-35.0,0.0,-624.0,692.0,59.0,-1
16.9804,36.0,-45.0,5.0,-665.0,758.0,-16.0,-1
16.9806,44.0,-48.0,10.0,-682.0,764.0,-28.0,-1
17.01,47.0,-50.0,15.0,-701.0,759.0,-25.0,-1
17.01,45.0,-52.0,20.0,-750.0,762.0,-23.0,-1
17.0397,42.0,-55.0,22.0,-797.0,763.0,-33.0,-1
17.0696,36.0,-58.0,24.0,-855.0,764.0,-77.0,-1
17.0996,37.0,-60.0,23.0,-900.0,799.0,-107.0,-1
17.1001,40.0,-60.0,23.0,-891.0,803.0,-126.0,-1
17.1005,47.0,-59.0,23.0,-841.0,766.0,-138.0,-1
17.1596,53.0,-57.0,23.0,-784.0,737.0,-132.0,-1
17.1896,60.0,-56.0,26.0,-655.0,642.0,-100.0,-1
17.2201,59.0,-56.0,27.0,-626.0,595.0,-88.0,-1
17.2202,56.0,-55.0,27.0,-625.0,559.0,-80.0,-1
17.2203,50.0,-53.0,23.0,-645.0,531.0,-71.0,-1
17.2212,45.0,-51.0,16.0,-674.0,511.0,-75.0,-1
17.2797,34.0,-47.0,-1.0,-694.0,502.0,-90.0,-1
17.2801,37.0,-51.0,-18.0,-693.0,583.0,-134.0,-1
17.2804,46.0,-58.0,-24.0,-698.0,676.0,-180.0,-1
17.3098,59.0,-62.0,-27.0,-704.0,737.0,-210.0,-1
17.31,74.0,-64.0,-28.0,-708.0,771.0,-225.0,-1
17.3391,85.0,-64.0,-29.0,-709.0,779.0,-211.0,-1
17.3397,89.0,-63.0,-29.0,-711.0,774.0,-181.0,-1
17.3705,86.0,-61.0,-29.0,-710.0,767.0,-156.0,-1
17.3706,79.0,-58.0,-30.0,-714.0,762.0,-141.0,-1
17.4596,70.0,-55.0,-30.0,-698.0,763.0,-139.0,-1
17.5196,62.0,-54.0,-29.0,-689.0,769.0,-151.0,-1
17.5497,58.0,-53.0,-29.0,-690.0,777.0,-174.0,-1
17.5502,60.0,-51.0,-29.0,-692.0,769.0,-189.0,-1
17.5512,62.0,-46.0,-31.0,-695.0,756.0,-181.0,-1
17.5516,63.0,-42.0,-33.0,-683.0,731.0,-159.0,-1
17.5525,61.0,-38.0,-35.0,-672.0,716.0,-130.0,-1
17.6092,40.0,-29.0,-51.0,-666.0,727.0,-66.0,-1
17.6097,40.0,-28.0,-53.0,-664.0,741.0,-61.0,-1
17.6102,39.0,-29.0,-54.0,-661.0,755.0,-57.0,-1
17.6109,37.0,-29.0,-54.0,-664.0,770.0,-53.0,-1
17.6391,36.0,-30.0,-53.0,-676.0,794.0,-57.0,-1
17.6399,35.0,-30.0,-52.0,-683.0,813.0,-60.0,-1
17.6701,33.0,-29.0,-49.0,-685.0,835.0,-63.0,-1
17.6704,30.0,-26.0,-45.0,-686.0,856.0,-64.0,-1
17.7292,25.0,-21.0,-39.0,-678.0,876.0,-48.0,-1
17.7589,23.0,-19.0,-35.0,-677.0,892.0,-38.0,-1
17.7593,17.0,-18.0,-24.0,-693.0,916.0,-22.0,-1
17.7599,15.0,-19.0,-19.0,-705.0,925.0,-15.0,-1
17.7608,13.0,-21.0,-8.0,-731.0,934.0,-16.0,-1
17.7613,13.0,-22.0,-4.0,-734.0,932.0,-17.0,-1
17.7891,13.0,-23.0,5.0,-735.0,929.0,-24.0,-1
17.7896,15.0,-24.0,11.0,-737.0,920.0,-26.0,-1
17.8191,16.0,-24.0,17.0,-744.0,900.0,-25.0,-1
17.8197,13.0,-22.0,22.0,-751.0,881.0,-24.0,-1
17.8491,7.0,-16.0,25.0,-728.0,853.0,-16.0,-1
17.8497,0.0,-10.0,29.0,-678.0,826.0,-6.0,-1
17.8793,-6.0,-3.0,34.0,-621.0,807.0,8.0,-1
17.8797,-11.0,0.0,41.0,-569.0,770.0,25.0,-1
17.9091,-17.0,5.0,48.0,-539.0,737.0,46.0,-1
17.9099,-24.0,9.0,55.0,-533.0,713.0,69.0,-1
17.9692,-31.0,12.0,60.0,-525.0,682.0,81.0,-1
17.9704,-40.0,13.0,65.0,-526.0,668.0,80.0,-1
17.9709,-49.0,13.0,71.0,-544.0,667.0,60.0,-1
17.9716,-54.0,11.0,77.0,-579.0,666.0,12.0,-1
17.9993,-57.0,9.0,81.0,-642.0,676.0,-43.0,-1
17.9998,-58.0,9.0,84.0,-733.0,689.0,-95.0,-1
18.0291,-56.0,11.0,83.0,-859.0,710.0,-141.0,-1
18.0598,-53.0,19.0,78.0,-982.0,721.0,-168.0,-1
18.0894,-49.0,32.0,65.0,-1031.0,697.0,-166.0,-1
18.1803,-50.0,49.0,48.0,-1025.0,684.0,-128.0,-1
18.1805,-55.0,65.0,35.0,-938.0,687.0,-61.0,-1
18.1806,-60.0,71.0,30.0,-823.0,702.0,0.0,-1
18.1811,-62.0,68.0,30.0,-740.0,713.0,33.0,-1
18.1814,-59.0,59.0,33.0,-680.0,703.0,44.0,-1
18.1824,-54.0,50.0,38.0,-651.0,678.0,37.0,-1
18.2092,-35.0,47.0,37.0,-684.0,532.0,-2.0,-1
18.2404,-37.0,57.0,26.0,-709.0,513.0,24.0,-1
18.2698,-43.0,66.0,17.0,-720.0,506.0,68.0,-1
18.2699,-51.0,70.0,8.0,-729.0,512.0,100.0,-1
18.2998,-57.0,73.0,0.0,-739.0,527.0,117.0,-1
18.2999,-60.0,75.0,-8.0,-747.0,545.0,124.0,-1
18.3013,-63.0,75.0,-14.0,-745.0,569.0,130.0,-1
18.3017,-62.0,74.0,-19.0,-741.0,595.0,126.0,-1
18.33,-56.0,70.0,-23.0,-737.0,623.0,120.0,-1
18.3304,-48.0,66.0,-26.0,-723.0,640.0,118.0,-1
18.42,-38.0,61.0,-27.0,-703.0,658.0,122.0,-1
18.4207,-30.0,56.0,-27.0,-681.0,663.0,126.0,-1
18.4208,-24.0,52.0,-24.0,-664.0,658.0,140.0,-1
18.4213,-22.0,48.0,-21.0,-644.0,640.0,155.0,-1
18.4217,-23.0,44.0,-18.0,-626.0,628.0,168.0,-1
18.4223,-24.0,38.0,-15.0,-617.0,630.0,168.0,-1
18.4492,-22.0,31.0,-13.0,-633.0,651.0,147.0,-1
18.4497,-16.0,26.0,-12.0,-645.0,655.0,124.0,-1
18.4839,-10.0,21.0,-10.0,-654.0,668.0,108.0,-1
18.4998,-4.0,17.0,-7.0,-663.0,676.0,91.0,-1
18.51,2.0,13.0,-5.0,-666.0,687.0,71.0,-1
18.5102,6.0,11.0,-2.0,-665.0,695.0,59.0,-1
18.539,10.0,9.0,1.0,-657.0,704.0,59.0,-1
18.5395,13.0,8.0,4.0,-657.0,710.0,60.0,-1
18.5695,17.0,4.0,9.0,-657.0,715.0,64.0,-1
18.6294,23.0,-1.0,14.0,-673.0,719.0,64.0,-1
18.6296,31.0,-10.0,16.0,-722.0,733.0,56.0,-1
18.6594,42.0,-19.0,16.0,-799.0,745.0,39.0,-1
18.6598,51.0,-25.0,12.0,-888.0,761.0,33.0,-1
18.6604,57.0,-28.0,5.0,-951.0,776.0,31.0,-1
18.6897,58.0,-28.0,-6.0,-995.0,794.0,33.0,-1
18.6902,54.0,-21.0,-16.0,-953.0,793.0,47.0,-1
18.6905,46.0,-15.0,-22.0,-856.0,807.0,66.0,-1
18.6913,40.0,-14.0,-20.0,-751.0,835.0,73.0,-1
18.7198,40.0,-17.0,-14.0,-667.0,845.0,72.0,-1
18.7495,40.0,-19.0,-3.0,-595.0,838.0,74.0,-1
18.7794,41.0,-21.0,12.0,-531.0,807.0,82.0,-1
18.78,40.0,-25.0,29.0,-516.0,758.0,95.0,-1
18.7806,36.0,-27.0,40.0,-559.0,701.0,105.0,-1
18.7812,30.0,-28.0,46.0,-610.0,652.0,105.0,-1
18.8092,21.0,-27.0,47.0,-661.0,614.0,96.0,-1
18.8098,12.0,-25.0,45.0,-705.0,598.0,83.0,-1
18.8393,4.0,-24.0,40.0,-756.0,602.0,70.0,-1
18.8398,0.0,-26.0,33.0,-798.0,627.0,43.0,-1
18.8695,-2.0,-31.0,27.0,-831.0,667.0,10.0,-1
18.8698,0.0,-39.0,24.0,-861.0,708.0,-26.0,-1
18.8991,4.0,-46.0,21.0,-876.0,730.0,-71.0,-1
18.8998,10.0,-52.0,19.0,-880.0,742.0,-112.0,-1
18.9295,17.0,-55.0,18.0,-876.0,748.0,-151.0,-1
18.9297,23.0,-57.0,17.0,-877.0,742.0,-185.0,-1
18.9598,27.0,-56.0,16.0,-861.0,711.0,-215.0,-1
18.9601,31.0,-51.0,13.0,-837.0,674.0,-229.0,-1
19.0197,32.0,-42.0,9.0,-790.0,625.0,-230.0,-1
19.0199,31.0,-30.0,3.0,-729.0,573.0,-203.0,-1
19.0203,27.0,-20.0,-2.0,-662.0,529.0,-165.0,-1
19.0209,22.0,-12.0,-7.0,-624.0,501.0,-119.0,-1
19.1097,17.0,-8.0,-12.0,-613.0,491.0,-85.0,-1
19.1104,12.0,-7.0,-17.0,-614.0,492.0,-48.0,-1
19.1396,11.0,-14.0,-25.0,-625.0,519.0,-25.0,-1
19.1396,12.0,-22.0,-31.0,-638.0,548.0,-37.0,-1
19.1402,16.0,-31.0,-35.0,-667.0,593.0,-74.0,-1
19.1407,24.0,-39.0,-39.0,-686.0,630.0,-121.0,-1
19.1422,32.0,-46.0,-41.0,-704.0,661.0,-167.0,-1
19.1691,43.0,-49.0,-43.0,-729.0,686.0,-227.0,-1
19.1697,48.0,-43.0,-47.0,-754.0,695.0,-248.0,-1
19.1992,48.0,-34.0,-49.0,-751.0,695.0,-232.0,-1
19.1998,45.0,-27.0,-51.0,-725.0,698.0,-201.0,-1
19.2292,39.0,-22.0,-51.0,-705.0,709.0,-176.0,-1
19.2298,34.0,-20.0,-50.0,-691.0,721.0,-160.0,-1
19.2593,29.0,-19.0,-47.0,-696.0,741.0,-163.0,-1
19.2893,26.0,-20.0,-44.0,-715.0,758.0,-170.0,-1
19.2898,25.0,-20.0,-41.0,-742.0,766.0,-189.0,-1
19.2904,25.0,-19.0,-40.0,-771.0,780.0,-206.0,-1
19.3199,27.0,-18.0,-39.0,-783.0,785.0,-219.0,-1
19.32,30.0,-16.0,-40.0,-787.0,783.0,-222.0,-1
19.3498,32.0,-12.0,-40.0,-778.0,777.0,-207.0,-1
19.35,32.0,-8.0,-40.0,-757.0,774.0,-179.0,-1
19.3798,29.0,-5.0,-39.0,-744.0,774.0,-145.0,-1
19.3802,24.0,-1.0,-37.0,-737.0,779.0,-114.0,-1
19.4096,18.0,0.0,-35.0,-728.0,785.0,-84.0,-1
19.4701,12.0,3.0,-32.0,-715.0,795.0,-58.0,-1
19.4704,8.0,4.0,-29.0,-710.0,810.0,-32.0,-1
19.5,6.0,2.0,-24.0,-675.0,815.0,-8.0,-1
19.5005,7.0,-3.0,-16.0,-645.0,829.0,12.0,-1
19.5006,10.0,-11.0,-6.0,-631.0,830.0,21.0,-1
19.501,17.0,-22.0,1.0,-631.0,814.0,26.0,-1
19.502,24.0,-33.0,10.0,-630.0,789.0,32.0,-1
19.56,25.0,-46.0,21.0,-661.0,710.0,36.0,-1
19.5602,21.0,-46.0,21.0,-642.0,678.0,27.0,-1
19.5606,14.0,-46.0,23.0,-606.0,661.0,19.0,-1
19.59,5.0,-47.0,26.0,-618.0,674.0,9.0,-1
19.6199,0.0,-47.0,28.0,-666.0,696.0,-10.0,-1
19.6202,-5.0,-53.0,31.0,-759.0,740.0,-45.0,-1
19.6801,-9.0,-62.0,33.0,-937.0,817.0,-106.0,-1
19.6801,-10.0,-71.0,31.0,-1134.0,897.0,-169.0,-1
19.6806,-5.0,-62.0,23.0,-1170.0,887.0,-249.0,-1
19.6811,1.0,-37.0,15.0,-1046.0,825.0,-286.0,-1
19.6817,9.0,-11.0,12.0,-865.0,756.0,-246.0,-1
19.7399,17.0,23.0,12.0,-659.0,577.0,-10.0,-1
19.7703,-11.0,48.0,7.0,-632.0,442.0,228.0,-1
19.7997,-56.0,51.0,-2.0,-583.0,446.0,313.0,-1
19.8298,-58.0,15.0,0.0,-611.0,525.0,223.0,-1
19.8302,-45.0,0.0,2.0,-699.0,577.0,155.0,-1
19.8592,-31.0,-9.0,2.0,-771.0,620.0,107.0,-1
19.8896,-11.0,-10.0,3.0,-843.0,680.0,54.0,-1
19.8899,-6.0,-6.0,5.0,-828.0,690.0,54.0,-1
19.9497,-4.0,-3.0,10.0,-797.0,680.0,66.0,-1
19.9501,-6.0,2.0,20.0,-761.0,633.0,97.0,-1
19.9506,-6.0,3.0,25.0,-746.0,600.0,120.0,-1
20.0096,-5.0,3.0,27.0,-746.0,567.0,136.0,-1
20.01,-1.0,0.0,28.0,-742.0,510.0,146.0,-1
20.0103,2.0,-4.0,26.0,-763.0,493.0,143.0,-1
